timestamp,ax,ay,az,gx,gy,gz,acc_roll_deg,acc_pitch_deg,gyro_roll_deg,gyro_pitch_deg,gyro_yaw_deg
0.0,0.0,0.3,9.824835707650562,0.4630887737658207,0.6996777182930011,0.38918053808331887,1.7489752725233905,-0.0,0.26533041763931714,0.4008859461177213,0.2229841027391422
0.01,0.004999916667083332,0.29998500012499957,9.793086784941442,0.9547083202350652,0.4623168414563844,-0.2755928581642667,1.754553959279421,-0.029238971729042593,0.8123381873845597,0.6657740789648884,0.0650809699110603
0.02,0.00999933334666654,0.29994000199997334,9.832384426905035,-0.6992837869095706,0.029815184960087063,-0.4090994417111536,1.7472831451250979,-0.058241520100191735,0.41167794740442587,0.68285692770925,-0.16931582801287887
0.03,0.01499775010124783,0.29986501012469624,9.876151492820402,0.28148461834528543,-0.32346838885278695,-0.0016872287054760257,1.739108904426809,-0.08696821902230932,0.5729568113623038,0.49752312656893494,-0.170282539197511
0.04,0.01999466709331708,0.2997600319982934,9.788292331263834,-0.32532128456091347,0.34911165680679496,-0.08509231126246422,1.754093783701931,-0.11698379854346039,0.386561378802852,0.6975494432296425,-0.21903685967382994
0.05,0.024989584635339165,0.2996250781184899,9.788293152152542,-0.24356269188234803,0.1967426927108748,-0.2266140246636376,1.7533023709446462,-0.14620774758837554,0.24701018598732563,0.81027474295988,-0.3488771780170584
0.06,0.029982003239722298,0.29946016198056125,9.87896064077537,-0.2961969621194346,0.44759661001386614,0.34819372372835766,1.7362628220870937,-0.17380859650349048,0.07730176696529865,1.0667288014402048,-0.14937679845710605
0.07,0.034971423668766384,0.29926530007598384,9.838371736457646,-0.431995384839908,0.31758590084098476,0.47765260428525536,1.7422847420000027,-0.20356825956007124,-0.17021344474180536,1.2486921840142535,0.12429808238896528
0.08,0.03995734698458635,0.29904051189078584,9.776526280703253,0.024260813972413496,0.5247763576596676,0.04420344314592368,1.751979723351144,-0.23406108892217448,-0.1563130172897993,1.5493669963462215,0.14962479876696744
0.09,0.04493927459900552,0.29878581990359826,9.827128002179299,-0.4154750582055189,-0.267617605780284,0.7387650405276309,1.7414768057583325,-0.26188969595672107,-0.394362775689117,1.3960333481735616,0.5729061388575978
0.1,0.04991670832341408,0.29850124958340774,9.776829115359378,0.1352284128899194,0.6586970328171629,-0.5708445570667525,1.7487600096423885,-0.29239130411018327,-0.3168825746965345,1.7734390827024176,0.2458361831297454
0.11,0.054889150418587405,0.298186829387009,9.776713512321487,-0.025119054724568476,0.09879980234619982,-0.09682972963985906,1.7469350145431946,-0.3215213301722044,-0.33127473805341384,1.8300472198550914,0.19035681489475106
0.12,0.05985610364445968,0.2978425907561599,9.812098113578303,-0.11947402343320487,1.0376304363126327,-0.35841116030140246,1.7386258881600012,-0.3493524738382829,-0.39972833557165605,2.424565879383905,-0.014997726689219885
0.13,0.06481707130984743,0.2974685681144364,9.704335987767111,-0.45378183102079894,-0.34459390904478393,-0.93326830853653,1.7557078134500954,-0.38250385871432874,-0.659726265909671,2.2271280424454236,-0.5497212702116929
0.14,0.06977155732211825,0.2970647988637911,9.71375410837435,-0.28838566528416637,0.8679819015826247,-0.041340342921349624,1.7516211757293472,-0.4113424113188377,-0.8249591399195563,2.724445216812401,-0.5734075504112237
0.15,0.07471906623679961,0.29663132338081266,9.771885623537951,0.377695612912878,0.0989553917313239,-0.06087375419164177,1.7386622989304321,-0.4378922275130433,-0.6085554169362195,2.7811425001479972,-0.6082856548653583
0.16,0.07965910330712299,0.29616818501268805,9.74935844398328,0.2504585938121904,-0.3257090018072242,0.7567248716210655,1.7399508081532307,-0.4679204796786546,-0.4650531619427746,2.5945249218905335,-0.1747140858710959
0.17,0.08459117453349801,0.29567543007286823,9.815712366629764,-0.4887776223992755,-0.24194291702716078,0.31540584227738877,1.7253159000765026,-0.4935352510184959,-0.7451022109174187,2.4559017920364856,0.0060002147084722065
0.18,0.08951478671291209,0.29515310783643645,9.75459879622394,0.049666152714612936,-0.16017365409716008,-0.5120934121646025,1.7330449289513392,-0.5255295092198216,-0.7166455913903594,2.364129015532285,-0.2874078025385341
0.19,0.09442944748825029,0.2946012705351811,9.729384814933237,0.3756935616858945,0.2120829732009582,0.9270462831670941,1.734278142277515,-0.5558173205185016,-0.5013889596739327,2.48564365169156,0.24375078177231782
0.2,0.09933466539753061,0.29401997335237245,9.87328243844608,-0.8347026405606859,0.2614177440177498,0.6105168477626765,1.7056409324288004,-0.5761754928661444,-0.9796385152043022,2.6354250394684815,0.5935512938327254
0.21,0.10422994992304978,0.29340927441724446,9.788711184975673,0.2716800961899675,-0.2868500019692895,0.2910488517343079,1.71678668710383,-0.6097871092688933,-0.8239772306514909,2.471072036040161,0.760310061824711
0.22,0.10911481154043466,0.29276923479918165,9.803376410234398,-0.33131187947292334,-0.01217729613049142,-0.11324204942491596,1.710473883475311,-0.6374104278976573,-1.013805022490538,2.464094956803827,0.69542712367031
0.23,0.1139887617675942,0.29209991850161243,9.728762590689328,0.28529933429657967,1.0711351793059318,-0.4797196183617399,1.7196347927292301,-0.6709830458619227,-0.8503404865106383,3.077810426868595,0.4205679305730043
0.24,0.11885131321356729,0.29140139245560887,9.772780863773741,-0.38162957827125843,0.8637715850503557,-0.1861033880355265,1.7077934351728943,-0.6964566471796662,-1.0689982064177819,3.5727152666958766,0.3139385055709451
0.25,0.12370197962726147,0.2906737265131934,9.805546129485494,-0.9024410503322595,0.21816183483701604,0.544374309852093,1.6978328142772023,-0.722459892044375,-1.5860590257340528,3.697712835260424,0.6258421213951806
0.26,0.12854027594607756,0.28991699344035393,9.742450321128885,-0.8137712189415813,0.019001739084100144,0.9422931529673045,1.704363336182694,-0.7555727310160071,-2.0523157557963834,3.7086000336825715,1.1657365217330216
0.27,0.13336571834441557,0.28913126890976715,9.818784900917285,0.024042473330690997,0.06001566335913065,0.7716217641360945,1.6865314097127018,-0.7778470398476998,-2.0385404283617774,3.7429864881294916,1.60784338446891
0.28,0.13817782428205688,0.2883166314932313,9.769968065504061,0.12986125086074093,0.3067589863652083,-0.24442471089313705,1.6901675288325142,-0.8099344735855872,-1.9641353857911088,3.918746503439329,1.4677982909649996
0.29,0.14297611255241777,0.2874731626538091,9.785415312510336,-0.4521583125522043,-0.5113962825992028,-0.5598087166445056,1.6825557294767155,-0.8367363773982949,-2.2232031082343946,3.6257379121538547,1.147051408293797
0.3,0.14776010333066977,0.28660094673768177,9.76991466938853,0.31929622938868696,-0.12868826871167255,0.07044312345560197,1.6801007171235438,-0.8661022807141605,-2.0402597792363113,3.552004939089352,1.1874123594226718
0.31,0.15252931822172175,0.285700070965714,9.892613909225448,-0.8307600311344799,-0.8342920369387947,-0.8842196827814258,1.6540538101065643,-0.882977180982439,-2.5162503851550606,3.073990642188974,0.6807916184155914
0.32,0.15728328030805888,0.28477062542473225,9.799325138763104,-0.033039899323658285,0.19961156130263963,0.16158385709239073,1.6643457185227284,-0.9191543822061571,-2.5351808597917453,3.1883596831298124,0.7733723820075334
0.33,0.16202151419743419,0.2838127030585161,9.747114453552205,-0.6055080998812283,0.3235979698513705,-0.07380129314933434,1.667614826335542,-0.9519086323358605,-2.8821115696834942,3.3737677287399133,0.7310873406872771
0.34,0.1667435460704072,0.28282639965850387,9.84112724560516,-0.3259180539010796,-0.241593231149687,-0.23301825093412112,1.6459472371850512,-0.9702999767240971,-3.0688489260105487,3.2353449542068513,0.5975776696685648
0.35000000000000003,0.1714489037277257,0.28181181385421367,9.738957817501449,0.023699335658207008,0.7869933816450164,-0.7973515336333977,1.657222886310902,-1.008134070526664,-3.0552702020504943,3.6862591081674165,0.14072872966104052
0.36,0.17613711663754497,0.2807690471033804,9.810443179750239,-0.4302066826419762,-0.6128828315011706,0.2568000532848583,1.6390596374889546,-1.0281594755458514,-3.3017605625236754,3.3351029867961692,0.2878643745910264
0.37,0.180807715982481,0.2796982036818103,9.702016493806012,-0.19227777211491268,-0.7321874401049101,-0.2663504198309557,1.6510288736549859,-1.0672028068182782,-3.4119276502790914,2.9155903354885395,0.13525677074552164
0.38,0.18546023470649134,0.2785993906729531,9.73359069755508,0.5031464046072203,0.11222590927998602,-0.584958417855144,1.6392016509045264,-1.0911137510166853,-3.123645892588148,2.9798910680177815,-0.19989983443192597
0.39,0.1900942075615807,0.27747271795719386,9.809843061793456,-0.2884459347615744,0.5235491513060773,-1.4361311066408247,1.6198828280043083,-1.109689534048244,-3.28891329847727,3.2798627426518094,-1.0227426410306395
0.4,0.19470917115432526,0.2763182982008655,9.836923328999772,0.4178460560325709,0.8419638457289343,-0.013757452525318127,1.6086952885926762,-1.1335007710282485,-3.0495050579049603,3.762272663772968,-1.0306250835146409
0.41000000000000003,0.19930466399221147,0.2751362468449815,9.808568414059499,-0.564853427328809,-0.22944213143447,0.886125798334872,1.6064283426738029,-1.1636006729446846,-3.37314234792042,3.6308119590305368,-0.5229122183522892
0.42,0.20388022652978507,0.2739266820936925,9.794217585880588,0.2649020889576414,0.5393404167156478,0.830629607273935,1.6016956522722683,-1.1920529100778334,-3.2213645768354278,3.9398313655111012,-0.04699633982782997
0.43,0.20843540121460538,0.2726897249024655,9.784944815220536,0.7207843103289502,-0.019254234750353604,-0.22854812829313592,1.59596062910471,-1.2198362341221887,-2.808385439957973,3.9287994976770078,-0.17794481831840855
0.44,0.2129697325329998,0.271425498965989,9.72607390048163,-1.2358222500636447,-0.08631364997040981,-0.30110603018089027,1.598155268612776,-1.2539047928138418,-3.5164596847099387,3.8793454014172624,-0.3504659271587911
0.45,0.21748276705561512,0.27013413070580305,9.764007789580265,-0.3984476277352384,0.4418299687433362,0.23438712803751188,1.5843661449269066,-1.2755029496485073,-3.7447534406018645,4.132495416648507,-0.21617194705267434
0.46,0.2219740534827599,0.26881574925765755,9.776968061452012,0.28853606359027,0.3261614392067098,-0.49919271959414574,1.5745334752879536,-1.3001157144689757,-3.5794343946793115,4.319372222533505,-0.5021884092858969
0.47000000000000003,0.22644314268953417,0.26747048645859867,9.852856111310947,-0.10152269302149634,-0.7881960784921247,0.15089594990973298,1.5545872525564368,-1.3160830973054425,-3.637602633827522,3.8677689737928143,-0.4157313676175161
0.48,0.23088958777074142,0.26609847683378524,9.817180914478424,0.18557293668565442,0.7382701748629479,0.38304013919234514,1.552215016588009,-1.3467925618168153,-3.531277135169983,4.290766776641939,-0.1962654555461484
0.49,0.235312944085579,0.26469985758303644,9.711847992231863,-0.3019925933579103,0.6900456770737258,0.6134666119421538,1.560772410784856,-1.387459844322453,-3.7043062074751445,4.686133967686747,0.15522514749900415
0.5,0.2397127693021015,0.2632747685671118,9.816204198469741,0.04329489373644996,-0.3127813507547647,-0.05007703823997639,1.5358711855211367,-1.3983884460038,-3.679500051749696,4.506923390520998,0.12653310782310376
0.51,0.24408862344145374,0.2618233522937254,9.780745885979185,-0.07783861769603974,0.19790176671870452,-0.10183687508848294,1.532922494134219,-1.4290669426141047,-3.7240983104675833,4.620312790976613,0.06818485554615676
0.52,0.24844006892186837,0.26034575390329495,9.766153899984703,0.5838910308299037,0.2470150931413694,-0.4389912933782805,1.5265333983692115,-1.4567091880784215,-3.3895532732253435,4.761842064712706,-0.18333871792527612
0.53,0.25276667060242347,0.2588421211544283,9.830583814442043,0.12721042165060656,0.13033688291195356,-0.41344017701993,1.5077678973683328,-1.4723702176084577,-3.3166670444572555,4.8365196244721735,-0.4202225748702612
0.54,0.25706799582655654,0.2573126044091472,9.851549976124799,0.1688013310376011,-0.27515257692271006,-0.11323944595076338,1.4956592429119104,-1.4942371046812093,-3.2199509714286134,4.67886875430369,-0.48510402134331876
0.55,0.2613436144653296,0.2557573566178517,9.84656400595581,-0.2059384830612337,-0.3358116839690258,0.18368275340808904,1.4873581979842128,-1.5198526491289657,-3.3379450728064115,4.486462763480166,-0.3798615183161268
0.56,0.2655930989604417,0.25417653330402484,9.758039123838868,-0.24380311203624677,-0.012777035495722639,0.4567923131166247,1.4915458328423814,-1.5585561173683786,-3.4776340162724755,4.479142058776607,-0.11813870817745176
0.5700000000000001,0.26981602436698465,0.2525702925486806,9.78453938120744,-0.21627909390981045,0.5863645096296823,-0.4015894753401724,1.4780975411158714,-1.5790481427219376,-3.601552853360853,4.8151042954850105,-0.3482326107894063
0.58,0.2740119683959368,0.25093879497455607,9.816563171570179,0.19722607118914842,0.27180007729721617,0.7463442844797609,1.4637515018977694,-1.598373121150492,-3.488550598064461,4.970834324173069,0.07939131775754855
0.59,0.2781805114563919,0.24928220373004906,9.848777256356119,-0.21049224041013148,-0.18530716604305297,-0.1355618005212844,1.449324988264989,-1.6173818685567547,-3.6091538111453687,4.864661100931373,0.0017200996544745012
0.6,0.2823212366975177,0.24760068447290348,9.776041288107736,0.14488742844820646,0.38584935532417236,-0.010683647174218078,1.4502326003309478,-1.6536488468532706,-3.5261393999165414,5.085736575859201,-0.004401181463171141
0.61,0.28643373005024064,0.24589440535364387,9.79071705116681,1.0377003993227194,-1.4242713103150377,-0.3736058395739117,1.4380692347824315,-1.675218984859051,-2.9315806545213943,4.269688934443717,-0.21846163609376046
0.62,0.29051758026865254,0.24416353699876014,9.7446832512997,0.4355623517158462,0.5743828501860517,-1.2121201301364708,1.4346699995422711,-1.7071139114599991,-2.6820217206069867,4.598786183520617,-0.9129555616164924
0.63,0.29457237897113475,0.24240825249364556,9.740189668795967,-0.16301176608392057,-0.8698568893890498,0.44202269818052486,1.4249989354024344,-1.731731320212433,-2.775420616078898,4.100394719890046,-0.6596951205123753
0.64,0.29859772068119605,0.24062872736528776,9.84062629111971,0.6006069610819724,-0.18122047070156608,0.3684219485462167,1.4001064955431992,-1.7374944517953077,-2.431298052871293,3.996563001437818,-0.44860481771723204
0.65,0.3025932028680198,0.23882513956471674,9.867812001428542,-0.2040376865107757,-0.5598349473130719,-0.1406637785591067,1.385775941748055,-1.7558919379393758,-2.5482030776591342,3.6758010896952147,-0.5291992549529007
0.66,0.3065584259867169,0.23699766944920952,9.796399493920983,-1.019062267588927,-0.6473407378604529,0.03349535861243596,1.3851699495050844,-1.7918462102452923,-3.132082956372351,3.304902035212166,-0.5100078212730367
0.67,0.31049299351827986,0.23514649976425475,9.850176644894601,-0.504043155458702,0.5804133936892597,0.2579696088520497,1.3668444141434455,-1.8049409904102351,-3.420878514637658,3.6374545324335767,-0.36220207012438393
0.68,0.3143965120092343,0.23327181562527838,9.818081801252383,-0.9353959605129278,-0.23385060065594568,-0.7812729284432713,1.3603607257480046,-1.833592665489698,-3.9568211133812237,3.5034679599829475,-0.8098386446593838
0.6900000000000001,0.318268591110984,0.23137380449913195,9.767744012269745,-0.17575674202065433,0.1732519408653579,-0.2645263386731474,1.3562226956897612,-1.8657214243473028,-4.057522344775895,3.602734045517281,-0.961401126612873
0.7000000000000001,0.32210884361884556,0.2294526561853465,9.81806978027542,0.00920918959477585,-0.023460289439592035,0.39713233981091356,1.3380644836932887,-1.8785594268549521,-4.052245865924051,3.589292285000551,-0.7338609754594916
0.71,0.3259168855107683,0.22750856279715245,9.8769018283233,0.8382186561376413,0.23852041361156073,-0.6271447115846247,1.3188233236100706,-1.8894530363094237,-3.5719817811407397,3.7259544641426037,-1.093188555119595
0.72,0.32969233598573655,0.2255417187422685,9.798208698044503,0.16346368688208132,0.03841094553012768,0.14677896608331464,1.3178941074911237,-1.9266642345623113,-3.4783239540321564,3.7479623226716545,-1.0090903722704312
0.73,0.33343481750184895,0.22355232070346112,9.8782321827907,-0.10955026440443212,-0.6414961120942848,-0.6782909023117025,1.2956905008492767,-1.9327620568425374,-3.541091654424791,3.3804119932783374,-1.3977225710771395
0.74,0.3371439558140725,0.2215405676188764,9.669012744795513,0.4147027905917446,0.49813340972357,0.23321499121676317,1.3117589164231538,-1.996485167833396,-3.3034843729329264,3.6658215154467344,-1.2641001761395654
0.75,0.34081938001166706,0.21950666066214627,9.841095125218763,-1.1055676545039426,-0.24687829158065625,-0.017820741148741784,1.2770111678588243,-1.9829968458486293,-3.936928205122196,3.524370623259265,-1.2743107123466662
0.76,0.34446072255527566,0.21745080322227156,9.80435235341191,0.11780727905428297,-0.7782909493298755,-0.8075659079527547,1.2697720328080104,-2.011676446676437,-3.8694295821298126,3.078442597513118,-1.7370120598354606
0.77,0.34806761931367836,0.21537320088328302,9.785049632476706,0.3854325969434834,-0.21405758048295626,0.5823696772285857,1.2601047400434213,-2.0367375188067522,-3.6485928922502677,2.9557965943147644,-1.4033386943099246
0.78,0.35163970960020513,0.21327406140368318,9.804588038826775,-0.7392931228899208,0.7503798953171554,-0.3672957883990246,1.2453281095297049,-2.053536630786964,-4.072176801355031,3.385732758375891,-1.6137837546394531
0.79,0.3551766362088039,0.21115359469567083,9.700621554269956,0.5718770216034645,0.42511087105674644,-0.4051262185071905,1.2461265790243352,-2.096383517998422,-3.744515286811153,3.629303432834823,-1.845904062542896
0.8,0.3586780454497614,0.2090120128041496,9.789016405608125,0.16924820374720706,-0.1743260672039296,0.10028459861547143,1.2223556701758496,-2.0979505328283796,-3.6475431744885602,3.5294219180217934,-1.7884451994893729
0.81,0.3621435871850713,0.20684952988552407,9.817855628575588,-0.20764395695040064,-0.1746288521592144,0.5743186747143576,1.2061494433472744,-2.111998761151938,-3.7665144407749485,3.429366920146354,-1.4593847202623838
0.8200000000000001,0.36557291486344795,0.20466636218628403,9.873894702237077,0.3163909330531424,-0.1608175256086913,-0.5079109094891985,1.1866456459659538,-2.1199061542425923,-3.585235724554686,3.3372252323086498,-1.750396339141496
0.8300000000000001,0.3689656855549814,0.2024627280213801,9.774086489086319,1.135346428902198,1.0383739917804204,0.030839924923985827,1.1858241899180655,-2.1613903228067795,-2.934729905343741,3.9321699178911755,-1.7327263574368992
0.84,0.37232155998542965,0.20023884775239242,9.759575319855342,0.09093312752924758,0.19096772611577667,0.21440825016528647,1.1745280944571157,-2.184278658228496,-2.882629042460838,4.041586404311019,-1.609879435238697
0.85,0.37564020257014635,0.19799494376549465,9.774912147820773,0.12411029315016804,0.21502082359553482,0.34655280363157204,1.1595357123127519,-2.2002863243796864,-2.8115190571181046,4.16478430535667,-1.4113192339755587
0.86,0.3789212814476385,0.19573124044921555,9.845770105885105,-0.22968044977012206,0.5151417270159211,0.0882207776386126,1.138032286365392,-2.203545092796123,-2.9431163082574936,4.459938878984257,-1.3607724336612943
0.87,0.38216446851275254,0.19344796417200036,9.816437555482985,-0.4249221847323959,0.11939457951325676,-0.18351391954166116,1.128100775470327,-2.229028070109811,-3.186578873377398,4.528346958473015,-1.4659182019740453
0.88,0.38536943944948465,0.19114534325957405,9.773511989811649,0.4151679082721228,-0.12952107291035156,-0.41379511032435984,1.1195489470319453,-2.257570803248479,-2.948705098989619,4.454136823580445,-1.7030054207952698
0.89,0.3885358737634119,0.18882360797210906,9.825663371655668,-0.4280419129544336,-0.09817492454248913,0.04307194152318738,1.1000803214200894,-2.264047693566126,-3.193955137352165,4.39788671516443,-1.6783270073240275
0.9,0.3916634548137417,0.18648299048119932,9.804853877467403,0.035783118609696234,-0.035800629707031975,-0.5360695059928035,1.0887351296808492,-2.287100591644699,-3.1734529132797906,4.377374457968748,-1.9854723193386523
0.91,0.39475186984497523,0.18412372484664347,9.848432249526645,-0.23882872338255834,-0.018611118254920796,-1.4606752417473037,1.0702030344453568,-2.2949408716984507,-3.310291740971614,4.366711068875644,-2.822377884499704
0.92,0.397800810018183,0.18174604699303884,9.764897345306133,0.23948991287319593,0.3638147718184899,0.2182799020788339,1.0653928882725123,-2.3324127772699503,-3.173074079471614,4.575161652907223,-2.6973126683644195
0.93,0.4008099704418886,0.17935019468618946,9.783616892670112,0.16683105264347414,0.025972942903649716,0.45196742054309763,1.0493306223417385,-2.3455572886099363,-3.0774868932111143,4.590043058327413,-2.4383543190248873
0.9400000000000001,0.40377905020255717,0.17693640750932946,9.780394592343393,0.5187699721289496,0.3663200386077896,-1.1814662177709192,1.0355387995233505,-2.3637008131997255,-2.780253487520056,4.799929055008054,-3.1152848402264772
0.9500000000000001,0.40670775239468687,0.17450492683916505,9.726824252593396,-0.2550081994273735,-0.04035829005429116,-0.5048653523549688,1.026912491195375,-2.39392924323079,-2.926362475447565,4.776805449855128,-3.4045514827810757
0.96,0.40959578415049913,0.172055995821737,9.814806013853229,-0.13493746764668563,0.039317595158045296,0.3095771305025989,1.0034331980378999,-2.389339233171056,-3.0036759770354746,4.799332780541692,-3.227176789242568
0.97,0.41244285666922503,0.1695898593481063,9.813052763608995,-0.4893818578911537,-0.9991003422660538,1.0287477348558494,0.989217899475539,-2.4063676490470236,-3.284071227569074,4.226890246637618,-2.63774754457503
0.98,0.41524868524598524,0.16710676402986518,9.800255672832124,-0.2221466300380558,0.4581638373512407,0.010396853837703947,0.9759953481071999,-2.425887995820968,-3.4113519164224186,4.48939888255871,-2.631790583993887
0.99,0.41801298930026026,0.16460695817447626,9.788270643331243,0.1886502465224261,0.17324423794899635,-0.3640014706145672,0.9625611493363594,-2.4450137514111967,-3.303263248475422,4.588660554645491,-2.8403481385942677
1.0,0.42073549240394825,0.1620906917604419,9.72923146289748,0.37849430832267594,0.4990050549298261,-0.09144822055242008,0.9535783159043534,-2.4758398846769376,-3.0864019065674784,4.874569492907975,-2.8927441281455417
1.01,0.4234159223090076,0.15955821641230664,9.778967733861732,-0.4610826620888127,-1.4481276890968446,0.6874382095740924,0.933906951666598,-2.478950719248563,-3.3505829064725603,4.044853148418425,-2.498870906464389
1.02,0.4260540109746815,0.15700978537549484,9.782864274173662,0.4348029600528301,1.0441873523903638,-0.32298208956226765,0.9186173374177837,-2.4933948437722755,-3.1014590720866106,4.643128645469302,-2.6839260785358063
1.03,0.4286494945943017,0.1544456534909866,9.75988613653892,0.6778189294024755,-0.06979481407758688,-0.3995960033251268,0.9057303844633615,-2.5144724966087257,-2.713097293934027,4.603139148385036,-2.912877805408965
1.04,0.4312021136216692,0.15186607716983352,9.7919357144167,0.20671745161185043,0.5540914083687583,-0.2413717610910162,0.8876860951126895,-2.521171026535312,-2.5946568762934046,4.9206102535411835,-3.051173686900151
1.05,0.4337116127970085,0.1492713143675181,9.820202542840727,0.938397906279033,-0.5199529635627654,-0.4766643041293562,0.8700055360014092,-2.528546827109363,-2.0569942887075827,4.622699043444188,-3.3242823132654986
1.06,0.43617774117249314,0.14666162455815823,9.894309295060527,-0.3868945995517865,0.30638695253128484,0.06133515799739776,0.8483993177377691,-2.5238986427874,-2.278668644677575,4.798245898992609,-3.289139843809625
1.07,0.43860025213734083,0.1440372687085602,9.808728890641593,-0.6223273516557085,-0.5267077815868281,0.8123392292347803,0.8404654868064099,-2.560016827235311,-2.6352360794275262,4.496464461870183,-2.823703583705724
1.08,0.44097890344247376,0.141398509252122,9.812877519536139,-0.8893601244521393,-0.31188448034790256,0.16153963655801454,0.8247133118070581,-2.572805463460555,-3.1448020776133747,4.317767753779009,-2.731148156622717
1.09,0.44331345722474363,0.13874561006259023,9.796277704211692,0.7480221557445915,0.9570156769333931,-0.1261767510631438,0.8106018423466094,-2.5907933275863373,-2.7162167993022654,4.866097542003412,-2.803442135558354
1.1,0.4456036800307177,0.13607883642767318,9.70406143923505,0.3271828281770289,-0.09534120038167329,-0.14590563445777205,0.8025533038293055,-2.6288769456988486,-2.5287547804356114,4.811471038515128,-2.8870399360660097
1.11,0.4478493428400238,0.13339845502251202,9.79867430622754,-0.027792335455227534,0.10871643658986144,-0.7815954043483285,0.7791591932151809,-2.61664575336416,-2.544678621373368,4.8737609905907835,-3.3348612757506197
1.12,0.45005022108825254,0.13070473388301362,9.803011510497052,0.13998431315991014,0.4350338653443771,0.4415548885735795,0.763082624229616,-2.6283349838014716,-2.464473489273892,5.123017124010767,-3.0818688699032784
1.1300000000000001,0.452206094689413,0.12799794237904716,9.923162105624264,-0.5627445236491883,0.24784094398630233,-0.03891859850640102,0.73824585809432,-2.608990628300627,-2.7869024660548836,5.265019575595271,-3.1041675922663092
1.1400000000000001,0.45431674805794164,0.12527835118750738,9.790381951760944,1.2228759898084132,0.07520945257178821,-0.09023995679531283,0.7323324525187402,-2.65665280787797,-2.086245884686235,5.308111433121897,-3.1558712974318377
1.1500000000000001,0.45638197013026055,0.12254623226524715,9.81507736711668,0.06461059098761375,0.1824805012331127,1.5965537839224304,0.7145578111009391,-2.6620173762181465,-2.0492267296951536,5.4126650961474185,-2.24111303450321
1.16,0.4584015543858834,0.11980185882188196,9.798264411514738,0.054697397302446445,1.2017077926191375,0.14937645418284312,0.6997464144654398,-2.6783701361642103,-2.0178874183315383,6.101193189590894,-2.1555266000675166
1.17,0.46037529886806783,0.11704550529246907,9.741566098119025,0.362883311949346,-0.028809398516792695,-0.37589552504759216,0.6876117750483304,-2.7055250567435802,-1.809970521683665,6.084686614235511,-2.370898948307735
1.18,0.46230300620401016,0.11427744731006455,9.857141140725751,0.2405046158683566,0.10054952335748375,-0.21317879810277165,0.6634919430649342,-2.6850421413538568,-1.672171477984963,6.142297268039368,-2.493041446111103
1.19,0.4641844836245833,0.1114979616781599,9.837596651634339,0.11194201213956569,0.525327198003806,0.5742228545983774,0.6486330525156822,-2.7013098026306457,-1.6080334065935018,6.443287688753233,-2.1640358677861258
1.2,0.46601954298361314,0.10870732634300208,9.839551597352154,-0.39523722772265596,0.5527629664789919,0.05663520526888223,0.6322691070539678,-2.7114436151480867,-1.8344877381150193,6.759997652501103,-2.1315862738456772
1.21,0.467808000776693,0.10590582036579911,9.754530627260264,0.23573417856799786,0.5935151527801901,-0.7191389891586834,0.6213269635948634,-2.7455270149360067,-1.6994219546310565,7.100056907407735,-2.543622710796058
1.22,0.4695496781595338,0.10309372389481411,9.870139715546806,0.9410122482375168,0.3193651110145923,0.45961446728760175,0.5977573392574307,-2.7235159300496714,-1.1602614589053852,7.283039702684435,-2.2802829248478886
1.23,0.47124440096584874,0.10027131813735078,9.729907446860386,0.6727100230774888,-0.5715024563652418,-0.334072042769497,0.5897480869955712,-2.7726679981879085,-0.7748268695029533,6.9555927982903185,-2.4716921743290143
1.24,0.4728919997247695,0.09743888533163286,9.829342854690013,0.7965933133196985,0.816715766150548,0.9366488881087728,0.5673018975082436,-2.7542545410794146,-0.31841235788992556,7.4235366302324035,-1.9350317006959878
1.25,0.4744923096777931,0.0945967087185806,9.9095227812905,-0.2556078382155926,-0.573172696509344,0.5400240328573243,0.5463053668307956,-2.741244263078224,-0.46486491365825505,7.0951327483858035,-1.6256206108781213
1.26,0.4760451707952579,0.0917450725134868,9.750473183743466,-0.49480241012929044,0.15131773261951662,-0.2236609478293756,0.53845561813678,-2.794996031313494,-0.7483659129611131,7.181831453832015,-1.7537689402245444
1.27,0.47755042779234613,0.08888426187759561,9.771685113519862,-0.06289346004982407,-0.37713792500967896,0.6405081808675565,0.520532778999989,-2.7977511111671562,-0.7844012240443402,6.96574726259432,-1.3867846539310311
1.28,0.47900793014461246,0.08601456288958666,9.804982568254383,0.027862456144347302,-0.03206917329649627,0.03392775526370165,0.502017710540428,-2.7967695167270397,-0.7684372068967873,6.947372973200706,-1.367345475130651
1.29,0.48041753210303634,0.08313626251696728,9.77482621729419,0.5470957592354743,0.1643812051517402,0.42638683756110973,0.4867094018417456,-2.813632871882517,-0.4549743148767484,7.041556499742036,-1.123043725455313
1.3,0.4817790927085965,0.0802496485873762,9.722466828446693,-0.8462323148574097,0.16067860772513654,0.24236640864723738,0.4723314982206198,-2.836770797443267,-0.9398298895328201,7.133618593467015,-0.984177952689609
1.31,0.483092475806367,0.07735500975980088,9.803428148740302,0.7647751597303069,0.21096037711764237,-0.42317832749543677,0.4515412740933195,-2.821046683395524,-0.501645843564063,7.2544900292195855,-1.2266413608547393
1.32,0.4843575500591326,0.07445263549571186,9.746884814313695,-0.07900394928949471,0.8068556345293235,-0.321774916158731,0.43711214664817033,-2.8448090164028987,-0.5469117883410732,7.716784419868238,-1.4110048732672136
1.33,0.4855741889605223,0.07154281603011693,9.82367962153176,-0.21344053497371002,0.22676715075698992,0.5149804087905806,0.41675126024548814,-2.8296923381579897,-0.6692042503785403,7.846712473031661,-1.1159427282073802
1.34,0.4867422708476597,0.06862584234253781,9.754028788288311,-0.5060521876300837,-0.12207831764532434,-0.16738766605327043,0.4026049191274471,-2.856714446371256,-0.9591508996986979,7.776766724310232,-1.21184883057393
1.35,0.48786167891332954,0.06570200612791245,9.877496720250878,-0.8274283359328847,0.48204358414417864,-0.20182423162099836,0.3806439181448351,-2.827548561158011,-1.4332325841981315,8.052957452194311,-1.3274856386750338
1.36,0.4889323012176581,0.06277159976742577,9.760837335383188,0.4115852919809573,0.5947352444623203,-0.4775612896746765,0.36800067366732275,-2.8675597898172893,-1.1974114984753061,8.393715768390955,-1.601108200084457
1.37,0.4899540306993071,0.05983491629927185,9.783896924189717,0.036658983594201944,-0.6138039075684962,0.21179953279673053,0.3499582032816992,-2.866786484868747,-1.1764074405531395,8.042031909118323,-1.479755963372308
1.3800000000000001,0.4909267651861799,0.056892249389350266,9.840675860868485,-0.6449804498705269,0.298700034924929,1.0312624596215725,0.33083102264870873,-2.855928120298595,-1.5459541491500568,8.21317448372884,-0.888885887032451
1.3900000000000001,0.4918504074056383,0.05394389330189981,9.738456784178302,-0.647539386031808,0.35058637115544916,-0.5337664571271364,0.31696925735596887,-2.8912790445873946,-1.9169670206920693,8.414045749773326,-1.1947116487751008
1.4000000000000001,0.4927248649942301,0.050990142870072246,9.811372996730206,-0.1678923496450641,-0.14878175167999597,0.012109728336379034,0.29739126845759,-2.8749266446111004,-2.013162285560006,8.32880005489426,-1.1877732830469458
1.41,0.4935500505069252,0.048031293466449375,9.865357137714122,0.8345107626446965,0.6878534066558097,0.7061102777077146,0.27860433487072345,-2.8640061663177088,-1.5350226680166261,8.722911167064959,-0.7832017505520891
1.42,0.49432588142585987,0.04506764097350575,9.71962583827194,-0.1297956756818024,-0.07502779351626336,-0.039820695622857574,0.26532236595358233,-2.911439341622392,-1.60939013876392,8.679923392547467,-0.8060173366747703
1.43,0.4950522801685889,0.04209948175402102,9.809231692926616,-0.7515714765590531,0.06278822673577113,0.22618589812486695,0.24558925110445343,-2.8891254473769648,-2.040009028830242,8.715898409361541,-0.6764223168569427
1.44,0.4957291740958432,0.03912711262144366,9.812994139712423,-0.12287153204297216,-0.0865359121419348,-0.5311967640734399,0.2281619065412706,-2.8919653718407186,-2.1104092560865193,8.666316966212522,-0.9807757524069327
1.45,0.49635649551879424,0.036150830810209984,9.839091143588867,-0.13636178487383524,0.007789523790733767,0.2141535486038243,0.21024808919988167,-2.8879549871522068,-2.188538831624262,8.670780036184613,-0.8580747635059826
1.46,0.49693418170582243,0.03317093394602087,9.738152464456096,-1.3484433214707858,-0.5481375434476009,-0.09357213250227439,0.19491145598449536,-2.9212308086437053,-2.9611402202075205,8.356720245565963,-0.9116876654002207
1.47,0.49746217488879046,0.030187720016079517,9.733977169345787,-0.027147433258906103,-0.7200254412971472,0.4928649978399315,0.17745769188170268,-2.9255843177743364,-2.976694559272677,7.944175908771232,-0.6292967219678494
1.48,0.49794042226882,0.027201487339292903,9.826097078280846,-0.11546726510433898,0.7972525316124861,0.5936930257823756,0.1584076715739644,-2.900988204238965,-3.0428524525523293,8.400968124778858,-0.289135553301631
1.49,0.4983688760215717,0.024212534536440188,9.81484923366166,0.3481031824067092,-0.4234806741591639,1.294781821009307,0.1411624614236024,-2.9068040775536166,-2.843403949366946,8.158331484673973,0.4527200493002196
1.5,0.4987474933020272,0.021221160500310872,9.812524642517294,0.9244780474726726,-0.4956961747281536,0.28981658660678783,0.12375138302307481,-2.9096986295853466,-2.3137168562430976,7.874318395794079,0.6187727811292715
1.51,0.49907623624877406,0.018227664365815768,9.81732241047485,0.5632825147738787,-1.0766950568018574,0.16289815829108323,0.10624283428416677,-2.9101945357688255,-1.990979633143286,7.257417349439,0.7121065841074141
1.52,0.4993550719877915,0.015232345480073753,9.765998763921075,-0.13444434527741528,-0.3194808738447511,0.09719215078866801,0.08924942171287502,-2.9270952072416367,-2.0680105963247435,7.074368226922659,0.7677936044389877
1.53,0.499583972635738,0.01223550337247731,9.811612684858051,-0.5532629543708352,-0.6615448967037492,-0.17658314640534417,0.07135782506953757,-2.914845227454768,-2.3850070321351486,6.695330785997073,0.6666188780408745
1.54,0.49976291530273953,0.009237437724739835,9.814653623664935,1.2866799016249302,0.8210075800681845,0.16924192173084557,0.05385632913218658,-2.9149865586324033,-1.6477934890599317,7.165733647057781,0.7635873910319363
1.55,0.4998918820946785,0.0062384483409277285,9.764282429098682,0.02960921700724413,0.5049085446713171,-0.14770070506951472,0.03655867268228595,-2.9307535049940148,-1.6308286513018952,7.455025036995568,0.6789610904567173
1.56,0.49997086011498315,0.0032388351174802176,9.89328872555724,0.0069646459564731015,-0.3440751725888619,0.08423048813480714,0.018733412756429577,-2.893059120063943,-1.6268382016839662,7.257884414259399,0.72722162247746
1.57,0.4999998414659173,0.000238898013219979,9.82369164604559,-0.012062543555001639,1.1262179026721544,0.6587987678039798,0.0013915494597840198,-2.9136888910489622,-1.633749532514153,7.903159971338631,1.1046856468808928
1.58,0.49997882324937004,-0.0027610629806425007,9.740434825139868,0.09904238038392747,0.49088274349579714,-0.5032712826398206,-0.01621993851239398,-2.9384268903054793,-1.5770024083341387,8.184415166286497,0.8163323393221462
1.59,0.4999078075671454,-0.005760747870507794,9.832827680431691,-0.07218020596197124,-0.16241569175431123,0.5699392805645227,-0.033524512376471104,-2.9104509407630594,-1.6183586347816978,8.09135779637033,1.1428836096358341
1.6,0.49978680152075255,-0.008759856690386644,9.751265916488634,-0.28683100344011814,-1.2497028574367866,0.6585575336699326,-0.05140304376048267,-2.934042407241839,-1.782700752850741,7.375330546579062,1.5202094170122913
1.61,0.49961581721069526,-0.011758089531896313,9.839354230187123,-0.27342947062019607,1.1454712862953709,-0.05903426349553937,-0.06838068317257454,-2.906826228702823,-1.9393643554783475,8.031637483832286,1.4863852634684143
1.62,0.499394871735262,-0.014755146574251166,9.857929778950371,-0.016376635107999193,-0.694786233381798,-1.0609274495042973,-0.08564924790132289,-2.9000761345549355,-1.9487474795765567,7.633554153126316,0.878518393855331
1.6300000000000001,0.49912398718881623,-0.017750728114244507,9.758965884082416,-0.2717123855668825,-0.8226993734784459,-0.30391099354721623,-0.10407999162659994,-2.927846513669958,-2.1044272645861866,7.1621819654968535,0.7043901588145052
1.6400000000000001,0.49880319065958684,-0.02074453459621865,9.848168806462217,-0.3564228913385822,0.5112852160048201,0.6484972732805546,-0.12053519004246312,-2.8995089138559176,-2.3086426115617575,7.455126920288543,1.0759518595187851
1.6500000000000001,0.49843251422695944,-0.023736266642020224,9.820639046346825,0.05321511384594842,1.2198762031696364,-0.011434031149441061,-0.13830434239738812,-2.9054639696636433,-2.2781525863628107,8.154064749904212,1.0694006398994635
1.6600000000000001,0.49801199495826837,-0.026725625080937756,9.841103007999726,-0.12748860871042764,0.6921364092552591,-0.4996511161474554,-0.15539973743264085,-2.8969883063262234,-2.3511982046323197,8.550629842678287,0.7831215356938499
1.67,0.4975416749050901,-0.029712310979618402,9.894839649132699,0.7519964942913443,0.2819545600261798,-0.2523874606141087,-0.1718306626825989,-2.8785631509788683,-1.9203357972561397,8.712177963481766,0.6385141210353114
1.68,0.497021601099038,-0.03269602567196133,9.787730594199857,-1.325484904196506,0.297377170832643,0.4203100132522765,-0.19115020205838984,-2.9069702969277578,-2.6797829769947614,8.882562592527695,0.8793341056083092
1.69,0.49645182554705924,-0.035676470788983665,9.762313191782127,0.5457534259612309,0.42670777939015386,0.27336678410068965,-0.20911684105948858,-2.9111873301755673,-2.3670891855628664,9.12704822839152,1.035961791493072
1.7,0.4958324052262343,-0.03865334828865739,9.755524278518724,0.6230425962488145,0.37946429489338257,-0.11946604958484716,-0.22672355697716956,-2.9095777995750383,-2.010111945701338,9.344465331865043,0.9675127626550373
1.71,0.495163402078079,-0.04162636048571326,9.759209485751729,-1.0366951162040747,0.1405957119846879,-0.18341220590734378,-0.2440706237315935,-2.9045598242204647,-2.6040947060913924,9.425020769812365,0.8624252719827774
1.72,0.49444488300235073,-0.04459521008140909,9.796144914529295,-0.17134379704017438,0.052100551975938034,-0.19587907452191095,-0.2604954606534288,-2.889431707997036,-2.7022675053559366,9.454872197871394,0.7501947892028523
1.73,0.4936769198503582,-0.047559600193259326,9.817057598740833,-0.18572043299789573,-0.03129656394976121,-0.46120509224925127,-0.27722197924148484,-2.87881224546496,-2.808677513205545,9.436940581183865,0.48594364195790585
1.74,0.49285958941777674,-0.050519234384723104,9.813834539966502,-0.7037558473589106,-0.37698229443333814,0.8076878447347209,-0.29457090474849085,-2.87499205382015,-3.2119000559966118,9.220945559729927,0.9487148541014221
1.75,0.49199297343696846,-0.053473816694847624,9.841359162451802,-0.38890834379543765,-0.14033753843338703,-0.16116023460566994,-0.31092986959721264,-2.8619275815160212,-3.4347282028409576,9.140538044384211,0.8563768084022266
1.76,0.49107715856880924,-0.05642305166786403,9.800650094593896,-0.5552879227329144,-0.8464784070976927,0.6085792604127482,-0.3294390158075497,-2.8684496798725863,-3.7528848604741625,8.65554146921033,1.205067164289794
1.77,0.49011223639402274,-0.0593666443827327,9.872676703857866,0.8761352217118114,-0.049169813397374945,0.7606580259612257,-0.3441046213287606,-2.84196704238265,-3.2508961761126067,8.627369231265797,1.640892265528486
1.78,0.4890983034040223,-0.06230430048263514,9.786767158338103,0.4678391965737306,-0.49429555357545873,0.4991554490739802,-0.3642955691393788,-2.860945473147295,-2.982843965722115,8.344158639480309,1.9268873733190155
1.79,0.4880354609912621,-0.06523572620440939,9.936008458329482,0.6357775474970794,-0.5517946586078855,-0.2158101563590242,-0.37572206903978744,-2.8119255895092787,-2.6185701336632836,8.028003475473653,1.8032372177518619
1.8,0.4869238154390976,-0.06816062840792612,9.83128336738825,0.36083603202161757,0.08994707557673923,0.20186504516830472,-0.3967409674999821,-2.83536046848002,-2.411826242428242,8.079539372001951,1.9188974103014034
1.81,0.48576347791115765,-0.0710787146054024,9.757142122179186,-0.5645258856086146,0.6960011431722997,-0.012097803195458083,-0.41686396099519757,-2.85006607589387,-2.7352758647947826,8.478318794991665,1.9119658771781403
1.82,0.48455456444022815,-0.07398969299065021,9.746455375096945,-0.26226013313988683,0.4591583030011565,-0.4518509303650641,-0.43441296778695054,-2.8460904623898537,-2.8855399061583458,8.741397217962604,1.653074271818034
1.83,0.48329719591664877,-0.07689327246825682,9.82412362076216,0.24468728061395903,-0.7852503018115885,0.1621796408608015,-0.44790243008344194,-2.816305890042281,-2.745344371232333,8.291481775537239,1.745996394486357
1.84,0.48199149807622405,-0.0797891626826941,9.788826860733709,-0.6110639044459727,-0.4948140682851688,-0.5895198955799013,-0.46644502763197243,-2.818813542907579,-3.095458323795889,8.007974096600703,1.4082262541546882
1.85,0.48063760148764995,-0.08267707404735387,9.835700024704606,0.35649921508619403,0.47038559399410795,0.5938396942307819,-0.481032404813719,-2.797528047047884,-2.891199246518534,8.27748528576438,1.7484714576817684
1.86,0.4792356415394571,-0.08555671777350625,9.823661881228677,-0.12016269907906751,-0.4912436967691548,-0.23230864864919654,-0.4983979202048285,-2.7927864367511126,-2.960047426257478,7.996023279750918,1.615368358969022
1.87,0.477785758426472,-0.0884278058991783,9.796358554367156,-0.18741040377479876,-0.1123165749985123,0.10057982793641965,-0.516558046256125,-2.792090562107176,-3.0674257163834784,7.931670599572921,1.672996376023817
1.8800000000000001,0.4762880971357977,-0.09129005131795002,9.757660314096581,0.35547998410174575,0.27502604951227594,0.14164393577307108,-0.5353909079859949,-2.7943649858810744,-2.8637506156525108,8.089248974849376,1.7541524021764845
1.8900000000000001,0.47474280743231523,-0.09414316780766474,9.724257638765707,0.22213165574301988,-0.48417222743181765,-0.12945248685203867,-0.5540188055933486,-2.7948568453402145,-2.7364785064413013,7.811838623764494,1.6799815642147138
1.9000000000000001,0.47315004384370724,-0.09698687005905107,9.77767425239665,-0.18048308290953996,0.05268775307297995,0.29334690073763736,-0.5676464269490444,-2.7702947115096914,-2.839887732658986,7.842026493389684,1.848057017767549
1.9100000000000001,0.47150996564500525,-0.0998208737042536,9.842819939716174,0.579664901682124,-0.6670127474591022,-0.23745182831126221,-0.5803792386215673,-2.7424568000404577,-2.5077640899209994,7.459856203631012,1.712007093121985
1.92,0.46982273684266246,-0.10264489534526945,9.810704687206512,-0.5405316637999487,-0.30068382197560684,0.4356486487286221,-0.5987514173283935,-2.741580878248042,-2.8174660309484905,7.2875770023595114,1.9616154716002387
1.93,0.46808852615815305,-0.10545865258228795,9.737713061064401,0.3079678034721319,0.15989096707126849,-0.6729898401233743,-0.6197688675487292,-2.7519089118311455,-2.6410134142067045,7.379187811070731,1.5760205587828304
1.94,0.46630750701110024,-0.10826186404193014,9.80865904629256,0.2965506289841919,-0.7964968667658346,0.06318978977320591,-0.6316560802147596,-2.721649075640626,-2.4711023589251804,6.922828559282312,1.6122256543517068
1.95,0.46447985750193466,-0.11105424940538607,9.819265868986443,-0.15477321965699514,0.2202373689801995,0.9694644995291424,-0.6472543547992581,-2.70806546372005,-2.559780913313413,7.0490153217384695,2.167688095072925
1.96,0.46260576039408413,-0.11383552943644634,9.755807128189945,0.163066511121059,-0.009818899463340608,-0.5001656623027874,-0.6677745801341609,-2.7146619442447126,-2.4663506512345132,7.0433895047397534,1.881114177531245
1.97,0.4606854030956977,-0.1166054260094256,9.807686255297277,-0.6255567881926515,0.2762449772085739,-0.33887248526242575,-0.6804180637123719,-2.6891236651996966,-2.8247684174837984,7.201666274391223,1.6869544761202562
1.98,0.4587189776409049,-0.11936366213697479,9.8029104359223,0.4620135096034505,0.11195706703233071,0.2569539248294575,-0.6968564934112933,-2.6789553135819753,-2.5600540810484245,7.265812971603932,1.8341782829826927
1.99,0.4567066806706126,-0.12210996199777965,9.742851485108469,-0.09245106822149451,0.6820702149869221,0.08979089096979898,-0.7172793511171435,-2.683626414039163,-2.6130246601944753,7.65661055784241,1.8856246922909665
2.0,0.45464871341284085,-0.12484405096414272,9.817889368017415,-0.26136151025951976,0.06261225132395364,0.1753150496367796,-0.7277527111085869,-2.65115581652956,-2.7627738283897494,7.692484748136478,1.9860728525007565
2.0100000000000002,0.45254528166260044,-0.12756565562944577,9.828039226318413,0.5245046129184446,-0.2147027705626265,0.24459356507383176,-0.7428570655402342,-2.6361772336559106,-2.4622547143812237,7.569469078120458,2.126214692358329
2.02,0.45039659576131363,-0.13027450383549014,9.854152562158765,-0.3521718452713796,0.06114875151614189,0.31736073428088496,-0.7566314176743434,-2.6167269336504257,-2.6640343905042227,7.604504744491643,2.308049063950436
2.0300000000000002,0.4482028705757799,-0.1329703246997128,9.852690102601747,-0.7042306481817798,0.27164901451819395,0.5548499209781116,-0.772409012940312,-2.6043757667308873,-3.067528974225159,7.760148220551958,2.625954764974213
2.04,0.4459643254766898,-0.1356528486422736,9.731116531602146,-0.7783145867619519,0.024430035162852165,0.20490932846425627,-0.7978205482190467,-2.6236999984354674,-3.5134705432271134,7.774145604638797,2.7433592039924366
2.05,0.44368118431668774,-0.1383218074130138,9.753108748004244,0.3030049756728198,0.02029584560194119,-0.12062882730927123,-0.8116938468162475,-2.604399775219091,-3.339861418375566,7.785774271743194,2.6742439523549715
2.06,0.44135367540798703,-0.14097693411828066,9.825751763360433,-0.6402146762481415,-0.3509958439033777,0.33628685060136565,-0.8211783409417917,-2.5716219758124,-3.7066775388493483,7.584668395012002,2.8669221937018285
2.07,0.43898203149953907,-0.14361796324761594,9.825689297545612,0.8773970909921823,-0.3314504587754741,0.9499409674476078,-0.8365742722442059,-2.5578278876510563,-3.2039658563886504,7.394761203052923,3.411198470528675
2.08,0.4365664897537582,-0.14624463070030783,9.825752384315303,-1.040964703941861,-0.7013026358998468,-0.06631687319128678,-0.8518762219212009,-2.5437454050642185,-3.8003949112297706,6.9929442473930195,3.373201687498742
2.09,0.4341072917228063,-0.14885667381179965,9.992636574532737,0.8482281841450191,0.8747883715934697,-0.48726465233532074,-0.8526471796956482,-2.487244688714158,-3.3143957872984093,7.49416124320447,3.0940195068260015
2.1,0.43160468332443686,-0.15145383137995727,9.828544525534658,0.1055087336013092,-0.6219316176956425,0.5535403346434864,-0.8819846796527804,-2.514138227721078,-3.2539437143116703,7.137820547392811,3.4111748698826636
2.11,0.42905891481740444,-0.15403584369118783,9.856778282009031,-0.048356555935196194,-0.34645259889795366,-0.06019058197679912,-0.8944644642913485,-2.49216929851215,-3.2816499898871885,6.939317759233438,3.376688194414401
2.12,0.4264702407764381,-0.1566024525464122,9.84770008817466,-0.27245954340447487,-0.3592036327845987,-1.086334773007018,-0.9102128694921457,-2.4794218918646957,-3.4377578649571294,6.733509164200439,2.7542639955418458
2.13,0.4238389200667849,-0.15915340128688343,9.83256956256529,0.19956805717603543,0.44746218847222063,0.4237108385752108,-0.9264683130927008,-2.467918733170243,-3.3234137500536627,6.989886204783106,2.9970325101902215
2.14,0.42116521581832284,-0.16168843481985345,9.784236537767983,-0.018817351212424182,-0.1474748391460139,-0.26766409297696137,-0.9458738328929003,-2.4644553041316866,-3.3341953019696304,6.905389315895684,2.843672226806328
2.15,0.41844939539924886,-0.1642072996440813,9.837948461024665,0.5516509410082607,0.6238710363368669,-0.045266641152080386,-0.9553836315669332,-2.4352240339636104,-3.018122482111419,7.262841217133183,2.817736342625114
2.16,0.41569173038934154,-0.1667097438751838,9.761358739273122,0.05711382433101982,-0.33674531212193426,0.16599016528450727,-0.977547244888985,-2.438137334141933,-2.985398659550367,7.069900296590424,2.912841735746195
2.17,0.4128924965528041,-0.16919551727082302,9.788159069663001,0.0751508807309388,0.13949708111190098,0.0952498398895332,-0.989421279576583,-2.4151072014477744,-2.94234036122853,7.1498262651901365,2.9674158935096218
2.18,0.41005197381068703,-0.17166437125573106,9.775731822608545,-0.18180610610692793,-0.41767352662987867,0.35472590856951974,-1.0051415795657916,-2.4015458074156815,-3.0465076241713427,6.910516876719335,3.170658940631797
2.19,0.407170446212898,-0.17411605894656654,9.804093706969317,-0.028472811860533728,1.0725745638866941,-0.21774318528492168,-1.0165628191406895,-2.3777901545943214,-3.0628213495093304,7.525057053694727,3.0459012406773183
2.2,0.40424820190979505,-0.17655033517660373,9.915732928333677,0.1539008844460296,-0.5937992095147564,0.25655289908804135,-1.0192012200669707,-2.3341927758955014,-2.9746426065589024,7.184835046209572,3.1928952766330045
2.21,0.4012855331233736,-0.17896695652024794,9.706636740370413,-0.8550841963283128,0.15491035511351375,-0.1297733387919586,-1.0553749361036093,-2.366935380177295,-3.4645699375187795,7.2735921734547,3.1185406039854415
2.22,0.39828273611804327,-0.18136568131737887,9.834313009518727,-0.6740927110528565,0.31688844046604925,0.3694052404437515,-1.0556712569741886,-2.318777365865917,-3.850796749058202,7.455155940527247,3.330194291739613
2.23,0.3952401111710024,-0.18374626969751554,9.719364206440519,0.3716320470113575,0.20689954872574912,0.3076837420065267,-1.082163469736008,-2.3282470315625226,-3.6378671946666685,7.573700692166055,3.5064841531921878
2.24,0.3921579625422099,-0.18610848360380394,9.776403406710529,0.08543271906397093,-0.09264382943885414,-0.46771935102229767,-1.0897031473982317,-2.2966414281613505,-3.5889178348172144,7.520619668938428,3.2385006092691544
2.25,0.3890365984439606,-0.18845208681682174,9.854447529848368,-0.09199166817633957,-0.06491034986671308,0.5429910580875161,-1.09471301823184,-2.2603517358105365,-3.641625197032193,7.483428764699497,3.5496116799288617
2.2600000000000002,0.38587633101006286,-0.19077684497820083,9.803214000954775,0.00921696653269658,0.0219057359895548,-0.267981722557024,-1.1140095042543592,-2.2536994919345186,-3.6363442623215523,7.495979831380598,3.396069408136034
2.27,0.3826774762646267,-0.19308252561406217,9.746112761103536,0.17379085268083552,-0.07350100081424431,0.40402889914057255,-1.1340780118727565,-2.248101639536421,-3.5367694029512458,7.453866844956071,3.6275609981298187
2.2800000000000002,0.3794403540904609,-0.19536889815826375,9.764234814537001,-0.26987984015468075,0.48193955839745484,0.18364365670067032,-1.145392449125519,-2.2249621963076063,-3.691399216406591,7.729997970456359,3.732781100385721
2.29,0.3761652881970854,-0.19763573397545633,9.833979887446734,-0.38915236270115633,1.1052615007956756,0.9190918383975613,-1.1504901874100673,-2.190144393188519,-3.91436717583512,8.363266389429247,4.259382121930312
2.3000000000000003,0.37285260608836,-0.19988280638394731,9.763481668414144,0.09792262754884078,-0.2787458925039168,-0.11173299118592607,-1.1719695617349062,-2.186518771639668,-3.8582616229999913,8.20355670035199,4.1953638107664055
2.31,0.3695026390297354,-0.20210989067836826,9.8108229294791,-0.489186388807516,-0.6849014897895389,-0.17465839805909875,-1.1793307494870202,-2.1564404556120813,-4.138544877958369,7.811136912565154,4.095291884331261
2.32,0.3661157220151257,-0.20431676415214575,9.802278591995192,0.20412637785723592,-0.04414102417562741,-0.009709802943866305,-1.1932572503862908,-2.1385426030682955,-4.021589036754042,7.785845959635536,4.089728575056149
2.33,0.3626921937334098,-0.2065032061197715,9.76741998261971,-0.8512918021189202,1.2898546688271593,-0.15158989141713772,-1.2103354561163602,-2.12610416373685,-4.5093434851124945,8.524878510977407,4.0028739340495685
2.34,0.3592323965345631,-0.2086689979388706,9.907197204466266,0.5145778186628218,-0.4018372839848654,0.39997095097102503,-1.2058139942744939,-2.0761602432608997,-4.214512007287082,8.294642624420009,4.232040490176025
2.35,0.35573667639542217,-0.21081392303206617,9.8316959511159,0.2362987412065215,0.8195584027220337,-0.808155304218294,-1.2275605557273288,-2.071732561393241,-4.079122753122875,8.76421516772682,3.7690014433817196
2.36,0.35220538288508807,-0.21293776690863614,9.69874287066712,0.12801486715693783,0.8388504070382203,-0.526841209573177,-1.2569095733248907,-2.0792553252553576,-4.005775610866371,9.244841219242621,3.4671435576270917
2.37,0.3486388691299689,-0.21504031718596286,9.809322715738473,0.49134549197275695,-0.2767941208539973,-0.5339014607895965,-1.2550467556284441,-2.035037440019703,-3.7242552804766444,9.086249813346358,3.1612404444560056
2.38,0.3450374917784682,-0.21712136361077056,9.766910676761581,0.8327372222312883,0.2844915395926377,0.47515379598678786,-1.2726990063211694,-2.022758052260129,-3.2471318271014495,9.249251516888277,3.4334836130970037
2.39,0.34140161096531985,-0.21918069808015114,9.842621666739811,0.5071850325090652,0.814198311564269,0.8553066862909626,-1.274915389142025,-1.9860755271972959,-2.9565361052451204,9.715752953085516,3.923538421460901
2.4,0.3377315902755755,-0.22121811466237362,9.760373963078365,-0.9204371156658226,-0.18956387049374354,-0.05222460926873575,-1.2976057519919826,-1.981267834489812,-3.4839079141627787,9.607140816975164,3.893615913783505
2.41,0.33402779670824545,-0.22323340961747776,9.794263177926656,-0.6397884833678508,-0.10179018005118089,-0.08441086159500531,-1.3049159403529904,-1.9527762755400122,-3.8504798440162555,9.548819318993399,3.845252035345754
2.42,0.33029060063960036,-0.22522638141764728,9.825249363949023,-0.3124092888478394,-0.29084045697432187,0.03502608155659069,-1.3124328439584416,-1.9248538581292092,-4.0294772453359355,9.382179952446304,3.8653205089822547
2.43,0.3265203757861324,-0.22719683076736313,9.843287759708506,0.013045525105416893,-0.5073783653464334,0.5809391513040952,-1.321505232569343,-1.8994066282781596,-4.022002707362587,9.091473458994143,4.1981742432351465
2.44,0.3227174991671854,-0.22914456062333222,9.739985179647212,0.2588295102345615,-0.32463877253300355,-0.46367656709528704,-1.3469628413949584,-1.8971773752396617,-3.873704268837612,8.905469077161179,3.9325070447053654
2.45,0.3188823510672518,-0.2310693762141922,9.783274938207953,-0.3628719065767328,-0.6119701333811283,0.11918449136739256,-1.3522890673384553,-1.8663543889420182,-4.081614630686005,8.554835893479392,4.000794752510244
2.46,0.3150153149979461,-0.2329710850599879,9.776252734441952,0.09338338223853916,0.017041734129613035,0.48759881489121487,-1.3644096601674285,-1.8450513006313374,-4.028109874765375,8.564600091382829,4.280168394292685
2.47,0.3111167776596523,-0.23484949699141958,9.767333538371314,-0.3776914661766613,-0.3849866155293209,0.2505470849699226,-1.3766782622846518,-1.8238865193815716,-4.244511221843023,8.34401893012238,4.423721351002882
2.48,0.3071871289028559,-0.23670442416885934,9.888272712014055,-0.3057589014959741,0.11689295589537385,0.0947908082993717,-1.370617444258553,-1.7788578524453555,-4.419698230526353,8.41099368434628,4.478032502944473
2.49,0.30322676168915735,-0.2385356811011353,9.820249085548049,-0.7033305484241111,-0.7779478231018137,0.5005230462835706,-1.3907889576160315,-1.768079096216834,-4.822677094890336,7.965262255517513,4.764811186497016
2.5,0.2992360720519782,-0.2403430846640801,9.736955802283248,-0.46161662305545215,0.16544011610722853,-1.3516161464996186,-1.4133117823900754,-1.759723894027779,-5.087164032002941,8.060052493562077,3.990391902430887
2.5100000000000002,0.29521545905695634,-0.24212645411884384,9.84589309735274,-0.6758423028081668,0.4167644808044623,0.3389376597654538,-1.4080795210930361,-1.7169012454292678,-5.474393286135303,8.29884103695484,4.184588946094782
2.52,0.29116532476204093,-0.24388561112996698,9.906107809850633,-0.48793662648866637,-0.9968678212857277,-0.3270378415637119,-1.4097126478801845,-1.6830720693810985,-5.753960479774996,7.727677643806613,3.9972099984681213
2.5300000000000002,0.28708607417728615,-0.24562037978321452,9.851623263027559,0.5268208983039198,0.18702828492378606,-0.9153164484282285,-1.427595028924574,-1.668665217697576,-5.45211423152458,7.834836995879975,3.47277211680958
2.54,0.2829781152243514,-0.24733058660316667,9.7240315017023,-0.4746994444159715,0.6138344962366461,0.25560129976249035,-1.456386814232779,-1.6663499689034165,-5.724097075798267,8.186538381174731,3.6192209263188975
2.5500000000000003,0.2788418586957083,-0.24901606057056672,9.775788296356689,1.3161910324186954,-0.6048205093456027,0.6868292725814789,-1.458571668807362,-1.6333163055804296,-4.969974894245715,7.840001631781093,4.012745252678636
2.56,0.2746777182135633,-0.2506766331394223,9.863345557459333,0.2466589504404446,0.8362861934188517,-0.06872425731384593,-1.4552931658859538,-1.5946649209351318,-4.828649675319259,8.319158496589973,3.9733691396566093
2.57,0.2704861101884943,-0.2523121382538604,9.764616526719061,0.09241806184743695,0.2095095046830226,0.4764372736014694,-1.4795936927854147,-1.5861947275600046,-4.775698007439274,8.439198643374148,4.24634768706476
2.58,0.2662674537778106,-0.2539224123647327,9.822190971407313,-0.4291788900906068,-0.35250592787920443,0.8061391289943227,-1.4803319886109945,-1.5523190515747902,-5.021599485947808,8.237227551948333,4.708231550135089
2.59,0.26202217084363805,-0.25550729444596965,9.838731702671467,0.3501549397044957,-0.027884538828853004,0.6574572267920237,-1.4870834051823179,-1.5250096201114054,-4.8209754120046,8.221250882350033,5.0849269278833935
2.6,0.2577506859107321,-0.2570666260106842,9.753653476421096,-0.28781891311888697,0.2791634562608612,0.8199822646856965,-1.509207519716876,-1.5132244866373177,-4.9858835608273715,8.381199817922342,5.554742326293181
2.61,0.2534534261240267,-0.258600251127019,9.79702373219691,0.06100490732268072,0.03800269570620575,0.3710637455359461,-1.511511186059911,-1.4814213652467583,-4.950930311137583,8.402973766448778,5.767346267807965
2.62,0.24913082120591928,-0.2601080164337407,9.637936632996547,1.2800422691343973,0.2693779962231846,0.0377168194507964,-1.5454036178251878,-1.480168968079399,-4.217519852698876,8.557316044408822,5.788956421246855
2.63,0.24478330341329976,-0.26158977115557497,9.748780617933287,-0.048029949862324936,-0.4603367965396831,-0.8009829059485842,-1.5365691064630824,-1.4378270661729413,-4.245038996712094,8.293562394137037,5.330026857420365
2.64,0.24041130749432413,-0.2630453671182844,9.787371592430343,0.5746366631428379,0.084680412018039,-0.12303124406497429,-1.5390465753524336,-1.406589570268368,-3.9157963234711004,8.342080713646068,5.259535121883387
2.65,0.23601527064494132,-0.26447465876348575,9.737610840901759,-0.3515882125629437,-0.7068572484524901,-0.42162329765809586,-1.5553211024325828,-1.3879225717388282,-4.117241602564739,7.937081198287228,5.017962680503799
2.66,0.2315956324651726,-0.2658775031632056,9.881620565196583,-0.01749424524848085,-0.05561303067435016,1.0854713587489069,-1.540820662615003,-1.3421103805214725,-4.127265070333818,7.905217267458113,5.639892179269855
2.67,0.22715283491515323,-0.2672537600341729,9.72849293110197,0.885400317817755,-0.4519538207323949,-0.0879429062161683,-1.5731617593918064,-1.3370651455105107,-3.619967875037594,7.646266710238921,5.589504587610052
2.68,0.22268732227093557,-0.2686032917518476,9.77799777566515,-0.3134835288938837,-0.3677649712948833,0.061602403392242835,-1.57312155434311,-1.304155507851569,-3.7995807707855755,7.435552827815749,5.624800177452864
2.69,0.21819954108006315,-0.2699259633641824,9.806537028864305,0.9062242789984644,0.6180465876052187,0.2757426880202338,-1.5762843106183249,-1.274162258062278,-3.2803523203391736,7.789667564556859,5.782789156495562
2.7,0.2136899401169149,-0.27122164260511833,9.872063664453307,0.3538759677277377,0.5456550602971345,0.021801223186226862,-1.5733600744626777,-1.2395588688200896,-3.0775962536218247,8.102304996594583,5.795280341729895
2.71,0.2091589703378295,-0.27249019990781104,9.728206892441028,-0.2812333879471338,0.3045690604535885,0.8475255202153765,-1.6040831537277513,-1.2312016074263419,-3.238731173113238,8.27681027633395,6.280876868741457
2.72,0.20460708483600865,-0.27373150841758737,9.85815818760775,0.3162038695277605,-0.5461563823362895,-0.311324680867226,-1.5901811085075614,-1.1885511011108603,-3.0575596364363515,7.9638856078233164,6.102500902241132
2.73,0.20003473879620975,-0.2749454440046308,9.80051165305098,0.48627722481336494,-0.15820422484740096,0.09730372761862136,-1.6066309095841163,-1.1688215781209617,-2.7789432102617355,7.8732412315632,6.158251851410043
2.74,0.1954423894492261,-0.2761318852763942,9.750924567447603,0.3109049811085982,0.6065488499895917,-0.3712352928490241,-1.6217733837584336,-1.14779262229728,-2.6008077140957155,8.220768247555535,5.945549620489851
2.75,0.19083049602616586,-0.27729071358973906,9.823105173713165,-0.7851123599452282,0.07085845681995237,-0.6600112556103529,-1.616634925725294,-1.112484766486804,-3.0506441216252136,8.261367167258182,5.567390891497855
2.7600000000000002,0.18619951971252766,-0.27842181306279984,9.809952984778674,-0.3635685879124343,1.159664769990847,-0.3058845454526427,-1.6254148367200558,-1.0869443628821405,-3.258953652618346,8.925806374542598,5.392131894104399
2.77,0.18154992360208416,-0.2795250705865716,9.769989156142062,-0.12375931777575237,0.19665891969718594,-0.01851839852420601,-1.63853578508461,-1.0641356794569936,-3.3298625438125056,9.038483675854458,5.3815216295227675
2.7800000000000002,0.17688217265057135,-0.28060037583622166,9.803490104249502,-0.03721671455002314,0.0960245582450158,-0.21465111225862998,-1.6392340607598515,-1.033239678031385,-3.351186158147658,9.093501714697405,5.2585355575452875
2.79,0.172196733629195,-0.28164762128212084,9.780734320156913,0.310336048775339,-0.1545582321012507,-0.346210489936928,-1.649187368599588,-1.0082106094515122,-3.1733766363134372,9.004946339149138,5.060171487652005
2.8000000000000003,0.16749407507795233,-0.2826667022005975,9.805675867262563,0.08885050046662692,0.06677045239114116,-0.7031587318359169,-1.650958602962043,-0.9781872066273504,-3.1224690312670798,9.04320300401026,4.657291066976763
2.81,0.16277466725878,-0.28365751668440875,9.833106533726053,-0.6676721793550506,-0.07623491819027195,-0.04155278631434738,-1.6521379129299198,-0.9479784096875787,-3.5050171478059906,8.9995235977538,4.633483065635666
2.82,0.1580389821085269,-0.28461996565293207,9.879300840807268,0.1900989255029816,0.3540543383442952,-0.7523601870155011,-1.650008346768334,-0.9161012529059592,-3.396098447647653,9.20238186334287,4.202412277603639
2.83,0.15328749319176146,-0.2855539528620727,9.738109225058658,0.3052928726419116,0.47835115839729203,0.3800279818448013,-1.6794147742276742,-0.9014304873602509,-3.221178453924489,9.476456986355865,4.420152350025472
2.84,0.1485206756534162,-0.2864593849138879,9.906651668732813,0.2798952239655199,-0.39299473025397474,0.04121987646725164,-1.6561094036408595,-0.8585560677104599,-3.060810246191653,9.251287511699008,4.443769608006395
2.85,0.1437390061712722,-0.2873361712659271,9.702395610023876,0.5403903627773109,-0.665616476778889,-0.7287757497324653,-1.6961310746044227,-0.8483912579219046,-2.7511892647154905,8.86991722639673,4.0262117119911816
2.86,0.1389429629082934,-0.28818422424028567,9.79241074524822,0.41696107727445203,-0.9181026865516483,-0.15460453852493172,-1.6855211043444707,-0.8125544307936584,-2.5122880798024747,8.343882947315471,3.9376298048070137
2.87,0.13413302546480896,-0.28900345903237296,9.829415860324229,0.22959003961421834,0.25399566345627184,-0.3760782027952916,-1.6839626564557373,-0.7814767738335081,-2.3807426298851913,8.489411794658048,3.7221527898898294
2.88,0.12930967483055542,-0.2897937937193924,9.814049593386752,-0.035082855729323514,-0.5516833030869368,0.15958725520959022,-1.6912180858507675,-0.7545552422847512,-2.400843632738153,8.173320432687964,3.8135895844602055
2.89,0.12447339333657628,-0.290555149268534,9.76886502400897,-0.8304804667579957,-1.0764452964762414,0.6702252230115723,-1.7035067244651325,-0.7296919557711639,-2.8766740600108807,7.556562488509529,4.19760048778647
2.9,0.11962466460699121,-0.2912874495448772,9.789593887482138,0.21480910956629293,0.19428930226548205,-0.9375862348228723,-1.7041946943772137,-0.6997854821776748,-2.7535974622119967,7.667882098556953,3.6604029538548275
2.91,0.1147639735106321,-0.2919906213190046,9.775349953267058,0.10384384358155557,1.2464997587163953,0.05751303957370858,-1.71080376937161,-0.67232971109861,-2.694099301281196,8.382074107311583,3.6933555099829007
2.92,0.10989180611255847,-0.2926645942743248,9.77053176215279,0.13578941859768673,-0.003035455769946662,-0.0800663977833202,-1.7156051027578143,-0.6441050490199055,-2.6162976675803025,8.380334918644545,3.6474808268417647
2.93,0.10500864962544958,-0.29330930101410396,9.842480104851052,-0.6383742879101547,0.41924538722582094,0.33567003822523284,-1.7068317398804718,-0.6109897767581074,-2.982059322832729,8.620544917218677,3.839805660603218
2.94,0.10011499236088527,-0.29392467706820524,9.817850774298254,-0.5405282702041312,0.040914679273782506,0.10659831411884457,-1.7147072815073685,-0.5839770092430008,-3.2917593194723476,8.643987310026025,3.9008820174641228
2.95,0.09521132368051352,-0.2945106608995362,9.765354520236968,0.5265764266664518,-0.04944482659557133,-0.37598466586940954,-1.7273621167047697,-0.5583571171675781,-2.990053143202391,8.61565750106948,3.685458595276918
2.96,0.09029813394711646,-0.2950671939102019,9.844979993771663,-0.01977757692832752,0.4595382414938843,-0.15952696783330908,-1.716644934032352,-0.5252661705972186,-3.0013848641240917,8.878953612839332,3.594056342841081
2.97,0.08537591447557266,-0.2955942204473651,9.815364976043831,0.3407503486863122,-0.14513727209432567,-0.3980129284017445,-1.7249021264425737,-0.49813121229843266,-2.8061492258414793,8.795796051694712,3.366011651409874
2.98,0.08044515748372788,-0.2960916878088113,9.840643105941949,0.014159188065230586,0.13369615703595147,0.5380035692992992,-1.7233752691115123,-0.4681584771291966,-2.798036605766001,8.872398334437715,3.6742651004684617
2.99,0.07550635604317192,-0.2965595462482188,9.831481442096182,0.014878069747872594,0.1608489030980068,0.01065582433597111,-1.7277110463805072,-0.4398262651476319,-2.7895120966794,8.964558000258943,3.680370440268351
3.0,0.0705600040299336,-0.2969977489801336,9.758550249453897,0.46914190298799885,-0.3340452268215244,0.9505953428765037,-1.74319152161783,-0.4140829248189001,-2.5207134902272017,8.773164115189736,4.225021646732187
3.0100000000000002,0.0656065960750919,-0.2974062521846477,9.771990947990153,-0.25802236410868695,0.4960211747682614,-0.030330406907310387,-1.743194522730059,-0.3844851056770869,-2.6685494679221864,9.057363415442609,4.207643597451389
3.02,0.060646627515314876,-0.2977850150117811,9.837364680256163,0.04806038847049168,-0.08747987834770432,-0.3542033834552314,-1.7338273696532585,-0.3530580626544907,-2.6410128838649105,9.007241119304267,4.004699935273646
3.0300000000000002,0.05568059434332479,-0.2981339995855667,9.830518513271674,-0.23113764435252124,-0.37787257974642235,-0.7568571963064136,-1.7370713475634574,-0.32437382338142173,-2.773445046297842,8.790736001757915,3.5710525497923156
3.04,0.05070899315830093,-0.29845317100783786,9.798954920301794,-0.2172481137161578,0.26825492178520177,-0.9015698381279725,-1.7445323162894568,-0.29636208383444096,-2.8979190910364245,8.94443480523412,3.0544908984781887
3.0500000000000003,0.045732321116218375,-0.2987424973617184,9.80586636916544,-0.15458606173431969,-0.44923399089551863,-0.7920679715027449,-1.744996813511756,-0.2670885724234986,-2.986490411795597,8.687042596278607,2.6006692176619186
3.06,0.04075107588013456,-0.299001949714814,9.863883244789422,0.11106688581685642,0.014090578684564124,0.1335633255057417,-1.7362492019286577,-0.23659844303017644,-2.9228537510317425,8.695115906060558,2.677195393517038
3.0700000000000003,0.03576575557042163,-0.29923150212210553,9.770421430558208,-0.23937431083173866,-0.004559498322101772,0.2543625116149669,-1.7541955738288577,-0.20963858523572235,-3.0600051774172745,8.692503505020923,2.8229344294469256
3.08,0.030776858714956574,-0.2994311316285437,9.827354869058503,0.6278780627867604,0.542947782915789,-0.7905953510160667,-1.7452051086744202,-0.17935247189871048,-2.7002574183190973,9.003589780824788,2.369956498319462
3.09,0.02578488419926732,-0.29960081827134405,9.789890367378305,-0.44730365110975195,0.2373491164399764,0.4475191570380577,-1.7528742834126707,-0.15083624499516954,-2.9565436236516387,9.139580855882004,2.6263661794976736
3.1,0.020790331216645246,-0.29974054508198383,9.78911593983864,-0.09343582208067952,-0.012513479372571959,-0.24153052584171975,-1.7538320488053594,-0.12162879960546222,-3.0100784253993402,9.132411157767653,2.487979332472454
3.11,0.015793699218226948,-0.2998502980878983,9.85493884259936,-0.21986552913708746,0.40888314960014355,0.07339650599277468,-1.7427643277248155,-0.09178067678621317,-3.136052139242668,9.366684029396252,2.5300324477530616
3.12,0.01079548786304798,-0.2999300663138785,9.841270817449402,0.7234889421768664,0.6951037745086567,0.8061103141277122,-1.745648435085033,-0.0628220275339527,-2.721523361910895,9.764949297831182,2.9918998011150477
3.13,0.005796196968079138,-0.29997984178316817,9.840675481800032,0.09827738825578732,0.2789051531759311,0.44841965793276595,-1.7460442648107448,-0.03373176889482142,-2.665214546090635,9.924750236584558,3.2488254314848897
3.14,0.0007963264582434141,-0.2999996195182618,9.865273940357717,0.5159222697343174,0.0051763099216903035,-0.13426532395291615,-1.7418083506106172,-0.0046227873285557474,-2.3696127542682004,9.927716044764669,3.1718970400034743
3.15,-0.004203623683574309,-0.2999893975414026,9.80105019208164,-0.742780186518486,-0.6559181161750798,-0.4455961127076437,-1.753155014441952,0.02456238222065065,-2.795194604375459,9.551902512757227,2.9165891824587287
3.16,-0.009203153466526904,-0.29994917687477946,9.834097648564748,0.13352513293462942,-0.5325568315376863,-1.0759077006646525,-1.747032478996824,0.053594809777455434,-2.7186903112595,9.246769815673058,2.3001392581013107
3.17,-0.014201762941801895,-0.29987896154042576,9.784486662170329,0.4448153978117185,-0.15261235217733382,-0.35957665962121005,-1.7554731931966294,0.08312327869613258,-2.4638297705600927,9.159329347594237,2.0941169343580612
3.18,-0.01919895225261769,-0.2997787585598163,9.816208317624422,0.04114199463771209,-0.3047561010796416,-0.10556511941384722,-1.7492179839484252,0.1120091278039979,-2.4402571355964584,8.984716901431847,2.033632554668942
3.19,-0.024194221684207075,-0.2996485779531656,9.793492847281616,0.5327401875326756,-0.093485651492723,-0.493589763575592,-1.752509781701255,0.14147920339305164,-2.1350193832281117,8.93115354952388,1.7508263509101982
3.2,-0.029187071713790043,-0.2994884327384259,9.804849798249636,-0.2586442250501861,0.028324962448553582,-0.06562848354615236,-1.7495437515539447,0.17047803411583812,-2.2832116611244158,8.94738256335848,1.7132239862345617
3.21,-0.03417700306052389,-0.29929833892998525,9.829757851271847,0.70467372009279,0.2648463771783654,0.03842594147938411,-1.7440034497204508,0.19911813670005896,-1.8794632158074913,9.099128413933842,1.7352404368127068
3.22,-0.03916351673543265,-0.29907831553706604,9.759088965838327,1.1494490618096251,-0.03524938902954561,-0.11242799090403928,-1.755330425934047,0.22982055188303546,-1.2208771802511722,9.078931994494251,1.6708239200003103
3.23,-0.0441461140913038,-0.29882838456182426,9.904619363784274,-0.18141928021982953,0.24325082191310096,-0.32500129041172987,-1.7281071044147804,0.2552565402869993,-1.3248228082073652,9.218304498915938,1.4846118306485863
3.24,-0.04912429687255434,-0.2985485709971491,9.749699130925016,-0.2227512607003859,0.03223720740506012,0.08432733598336384,-1.7539015842303156,0.2885496675337406,-1.452449925035737,9.236775064796328,1.5329278524189422
3.25,-0.054097567265054186,-0.2982389028241639,9.739290569360614,0.7266922385588505,-0.9877332831769357,0.22097032478470452,-1.7539500167896065,0.31810101467757396,-1.0360857934155352,8.670845378333837,1.659534567766937
3.2600000000000002,-0.059065427945908903,-0.2978994110094278,9.857905543675004,0.7897860728653562,-0.46966769690937715,-0.545199538721423,-1.730882892370343,0.3431373020651442,-0.5835715446787463,8.401745514048033,1.3471581304601876
3.27,-0.06402738213318984,-0.2975301295018395,9.839583134698147,-0.26143001357663415,-0.07204377786080773,0.705466189873135,-1.7319501325601234,0.3726551249352173,-0.7333599623975875,8.360467455172461,1.7513606276775193
3.2800000000000002,-0.06898293363561364,-0.2971310952292419,9.831205990852608,-0.21009340854792863,-0.6048473714205538,-0.04929406614213087,-1.7310956836009397,0.4018390272242747,-0.8537346615723916,8.013915314938082,1.7231171981288562
3.29,-0.07393158690215926,-0.29670234809472984,9.831417275463215,-0.1408923044302536,0.29996436499810225,0.009424811472423831,-1.7285558607622065,0.43065616727839545,-0.9344600345341408,8.185782297578665,1.7285172192604734
3.3000000000000003,-0.07887284707162433,-0.29624393097265944,9.799387661357654,-0.6722252555171385,0.7653754161718487,0.3541072116282786,-1.7315173535583117,0.46093902722358193,-1.3196168724847295,8.624310265277654,1.9314057790205885
3.31,-0.08380622002210916,-0.2957558897043609,9.755137281425709,-0.4593259732420991,0.6093809258486583,0.11660806563175083,-1.7364953349935448,0.49198891750777435,-1.5827913634615762,8.97345994179005,1.9982173030888255
3.3200000000000003,-0.08873121242043029,-0.2952382730935543,9.803790227909687,-0.5020703833760339,-0.106721435465104,0.47656831695662255,-1.7248537114281246,0.5183180704365773,-1.870456606179942,8.912313041568835,2.271270932835658
3.33,-0.09364733177145158,-0.2946911329014695,9.766141914424395,-0.3838987825520642,0.745363068424976,0.1435620826009121,-1.7282833964624764,0.549141271326202,-2.090414484833407,9.339374774527473,2.3535259765585113
3.34,-0.09855408646733492,-0.29411452384166964,9.848755986670888,-0.01734244369339059,0.07433372860105578,-0.30621868732021895,-1.710436453565097,0.5730702221752735,-2.100350976687085,9.381964878999275,2.1780755299088934
3.35,-0.10345098583669987,-0.29350850357458025,9.792647130924895,0.11710736626826038,-0.16854298555901967,0.18075176260305081,-1.7166786250324797,0.6049869898613922,-2.0332533743247554,9.285396827079351,2.2816386983064123
3.36,-0.10833754019368981,-0.292873132701723,9.758725140160376,0.7752502464070384,-0.3067013317704699,-0.5718631036603309,-1.718905485837803,0.6357629266322022,-1.5890675436438713,9.109669845430806,1.953985158159396
3.37,-0.11321326088694157,-0.2922084747596556,9.783930707917351,-0.4991770203693955,-0.15123484324406417,0.05427985288826157,-1.710582154662629,0.6626643275448177,-1.8750750108806795,9.023018632115374,1.9850852341105487
3.38,-0.1180776603484485,-0.29151459621361864,9.820646572713782,0.4921611992382919,-0.19408840927061438,-0.0166149953222304,-1.7001372259671206,0.6885541989689842,-1.593087314487506,8.911814125316502,1.9755655396207141
3.39,-0.12293025214231851,-0.2907915664508882,9.771813772359803,-0.10699442211275448,0.08520811118774385,-0.10405842863626985,-1.7043813282894413,0.7204288978262596,-1.6543906245923856,8.960634794286408,1.9159444304661344
3.4,-0.1277705510134156,-0.2900394577738383,9.758888980221679,-0.024731854826216475,0.0802869905249323,-0.06426875571946537,-1.702214626664059,0.7497845845352624,-1.668560938669905,9.006635867803592,1.879121132726621
3.41,-0.13259807293588668,-0.28925834539270967,9.812184360574596,0.3374097460833019,0.0015230100767072347,-0.9409245227488195,-1.688408161783902,0.7738897699810271,-1.4752393253735085,9.007508488611125,1.3400109000215026
3.42,-0.137412335161562,-0.28844830741808963,9.812248328555437,-0.5613610107811493,0.21846908487317493,-0.27436245387048075,-1.6836603502430199,0.8019806442742559,-1.7968756073886543,9.132682098541888,1.1828127371767796
3.43,-0.14221285626823127,-0.28760942485310054,9.774652841231445,0.1912048730920253,0.5953231373931707,0.046422450570557355,-1.6852067266687696,0.8331853341182534,-1.6873232457115936,9.473777252696404,1.2094108516107853
3.44,-0.1469991562077838,-0.2867417815852999,9.776448084719085,0.08322610410652805,0.47477706772066186,0.07992819599870019,-1.6798053788398706,0.8610670286332752,-1.6396381835549254,9.7458045718635,1.2552063509338085
3.45,-0.15177075635421466,-0.2858454643782914,9.811602496867883,0.24622563200407455,-0.7424489842249518,-0.5138375704629791,-1.6685500787783454,0.8858332006744867,-1.498561237893135,9.32041248675994,0.9607990042364808
3.46,-0.1565271795514851,-0.28492056286304884,9.727595782925135,0.14458432195390905,-1.2769605674509774,0.6328539204323503,-1.6774924645206302,0.9214742831869723,-1.4157204939550674,8.588767713954363,1.3233977207795593
3.47,-0.1612679501612395,-0.28396716952895296,9.729626811281173,1.2276500699554471,0.46715995561963686,-0.43308742410725043,-1.671520474727495,0.9491828723743222,-0.7123285651735343,8.856430747806279,1.0752568164379173
3.48,-0.16599259411036704,-0.28298537971454274,9.76407778893738,-0.318869992125658,-0.6834393492077105,0.4847286002633684,-1.6598587492182437,0.9735449180705831,-0.895027678121867,8.464848705162929,1.3529859457876166
3.49,-0.17070063893841048,-0.28197529159798135,9.789327642414408,-0.2654984775009088,-0.11238270094634177,0.21359718093584243,-1.649661259410898,0.9985753677563187,-1.0471471547938327,8.400458137594114,1.475368159382255
3.5,-0.17539161384480992,-0.2809370061872389,9.815545378279902,-0.3115702632123822,-0.5850565130296798,-0.3231136549219015,-1.6391900667572592,1.0232765684063287,-1.2256638296634728,8.065245328001657,1.290237605885512
3.5100000000000002,-0.18006504973598428,-0.279870627309991,9.873767810847479,-0.27773855958012733,-0.9009902187900098,0.887655446304756,-1.6233367015476197,1.044351403313452,-1.3847963592833834,7.549015774224168,1.7988268950893926
3.52,-0.18472047927223856,-0.278776261603237,9.842882981160102,-0.31869356365325885,0.270731364102394,-0.59681841587824,-1.622047583578651,1.0747075520759608,-1.5673943861270274,7.704133475137548,1.4568750091646276
3.5300000000000002,-0.18935743691449902,-0.2776540185026353,9.79200307350183,0.5945082655537759,0.3795775801513234,0.45957708680500076,-1.6238935502826246,1.1074008548669694,-1.2267661193118669,7.921615486305891,1.7201933776662475
3.54,-0.19397545897086516,-0.276504010231561,9.799049189604867,0.7102521239949274,-0.2882552003633597,0.5002911590214891,-1.615994488137821,1.1335899363561368,-0.8198214828519813,7.7564573632161,2.006839199556882
3.5500000000000003,-0.1985740836429801,-0.27532635178988274,9.74987353176811,-0.28537314687473814,-1.295521146072455,-0.33531010453832244,-1.6172085212763272,1.1663076746007068,-0.9833283103390373,7.01417815840472,1.8147205926808134
3.56,-0.2031528510722084,-0.2741211609424634,9.799074343200381,-0.41617778655211435,-0.2731222241262414,0.6962326500321644,-1.6020410166090333,1.1872125453846103,-1.2217807025663638,6.857690595113796,2.213632659377942
3.5700000000000003,-0.20771130338562313,-0.2728885582073833,9.785567068053993,0.23570777819320204,0.19590200270127325,-0.1250232572994764,-1.597024780338553,1.2155219331507878,-1.086730045388343,6.969934214777513,2.1419995839221486
3.58,-0.2122489847417913,-0.27162866684388887,9.816135928016905,-0.2761115221404856,-0.7394557843870644,0.14434681463992852,-1.5846939898947485,1.2382087349626765,-1.2449303508909115,6.546257107466669,2.2247042461446127
3.59,-0.21676544137635886,-0.2703416128400666,9.758638452822385,0.3164659088777554,0.09167995988957782,0.13016091938561036,-1.5864565520751586,1.2719953000372028,-1.0636086766721307,6.598785873925082,2.2992809861939536
3.6,-0.22126022164742623,-0.26902752490024406,9.825967325712059,0.10146151042564985,-0.007654924586497779,-0.0671543707352739,-1.5679258709220278,1.2894799968963295,-1.0054754925816711,6.594399923643851,2.2608043522462125
3.61,-0.22573287608071158,-0.26768653443212054,9.87663694565013,-0.757872057498616,0.2896457498005442,0.40540413657989105,-1.552102566087147,1.3088002177828952,-1.4397043509019631,6.76035477315807,2.4930838955327537
3.62,-0.23018295741449915,-0.266318775533625,9.794561992577158,0.7737526006650308,0.05979018420707663,0.3967443602761065,-1.55708587945133,1.3457686919311498,-0.9963766083301285,6.794612037520989,2.7204017507078313
3.63,-0.23461002064436356,-0.2649243849795078,9.820085586104948,0.8979388365477609,-0.48653447044077774,-0.8742659866190904,-1.5448991039858262,1.3680859643089844,-0.48189536841939656,6.5158482204061805,2.219484059546531
3.64,-0.23901362306767143,-0.26350350220766217,9.834507199585556,-0.3063943452421931,0.5982857508322457,0.6521701214390763,-1.534349741828196,1.3917185806301484,-0.657446459680673,6.858640827631523,2.593150147986021
3.65,-0.24339332432784969,-0.2620562693051814,9.77993897640571,-0.19385077996799208,-0.07926478651348501,-0.8312459940178372,-1.534414689534524,1.4251143831997775,-0.7685148148695737,6.813225434080329,2.1168811057455486
3.66,-0.24774868645842246,-0.2605828309941494,9.811204624090522,0.14293269536245248,-0.01365226975496593,0.5162731021708287,-1.520917492483927,1.4459934173349227,-0.6866203836000937,6.805403256906064,2.412683909819142
3.67,-0.25207927392680574,-0.2590833346171698,9.800629620039091,0.1672283949935125,-0.466633979536598,0.5633525684137917,-1.5137824215494242,1.4728496750371707,-0.5908055368614007,6.538041585258734,2.7354612707123716
3.68,-0.2563846536778619,-0.2575579301226305,9.804883804927442,0.3292721363364152,-0.22164112559575516,-0.5454832151075991,-1.5042045210774784,1.497350721074311,-0.40214643217036083,6.41105052921964,2.4229222987507515
3.69,-0.26066439517720325,-0.25600677004970984,9.761349510807227,1.0051022693831748,-0.44240135701345046,-0.2054071439772924,-1.5017925856697398,1.5291216801526666,0.1737349538908842,6.157573132507928,2.30523263235181
3.7,-0.2649180704542467,-0.2544300095131224,9.801225508712948,-0.0884736137470247,-0.0864730299617115,-0.5528523342429679,-1.4864645227060422,1.5477538676780886,0.12304328910561643,6.108027718207126,1.988471464628628
3.71,-0.2691452541450088,-0.25282780618760803,9.824899914562273,-0.39914862226922687,0.8558542400711717,-0.10746051514436766,-1.4735357386560841,1.5686604412190066,-0.10565210721251526,6.598396251889825,1.9269011027925411
3.72,-0.2733455235346436,-0.251200320292164,9.872557180389753,-0.6896596140072636,-0.6859505714656782,-0.15401714209287062,-1.4569784869157414,1.585453595648933,-0.500798100334889,6.205375384363993,1.8386557490932942
3.73,-0.2775184585997119,-0.2495477145740237,9.847963541304262,-0.36546501997095954,-0.8067806989383706,0.3898302661346699,-1.4509904909608047,1.613666700773528,-0.71019420724741,5.743123928661662,2.0620121187172824
3.74,-0.281663642050185,-0.24787015429238163,9.907659122875579,-0.016563486436898547,0.7355851637468043,0.6551543730598042,-1.4325502828850265,1.6279070783896779,-0.7196843893093225,6.164583332911703,2.4373880579968814
3.75,-0.28578065937117186,-0.2461678072018682,9.761632621855599,0.8972789317588938,-0.10466183857593306,0.697841905394978,-1.4439542722119916,1.6763743539302425,-0.20558124712661027,6.104616495204915,2.8372221604281775
3.7600000000000002,-0.28986909886437157,-0.24444084353577367,9.843616031836035,-0.2588056495180857,-0.3345363693299583,-0.28108401328915106,-1.42188461629326,1.6862059484090086,-0.35386601446319366,5.91294120610636,2.676172826342052
3.77,-0.29392855168924137,-0.24268943598902565,9.809167100286919,0.11189397581944925,0.5199523436980382,-0.10461093687226389,-1.416635028215669,1.715811375304448,-0.28975546586563367,6.210852061046902,2.616235153173593
3.7800000000000002,-0.2979586119038821,-0.24091375970091916,9.909490146660884,-0.008211448036376037,-0.30280776986843205,-0.8417190961104751,-1.3920384564645814,1.721742530331509,-0.29446028070965957,6.037355926838624,2.1339654633043272
3.79,-0.3019588765056303,-0.2391139922376035,9.759585085732244,0.594196636724042,0.9130048567734681,-0.4029350332480944,-1.4028192196242648,1.771619013042583,0.04598943587447407,6.560469363565838,1.903100612524566
3.8000000000000003,-0.3059289454713596,-0.23729031357432495,9.758013907890962,1.2634662129368108,0.33896293566963454,0.4824258165487288,-1.392330629067779,1.7951934367614226,0.7699025103063234,6.75468088926124,2.1795103435226926
3.81,-0.30986842179748164,-0.23544290607743035,9.7700303677278,-0.2654343864601603,-0.24395570407285133,0.8077914117741158,-1.3797806213204378,1.8160696327879295,0.6178197551088828,6.6149045169670675,2.642340895229966
3.8200000000000003,-0.3137769115396469,-0.23357195448612966,9.693805213784511,-0.24471972125911107,1.0786541066327517,-0.617174435939961,-1.3795508307184237,1.8534111714640846,0.4776056330557051,7.232928016595156,2.2887258647626783
3.83,-0.3176540238521378,-0.2316776458940231,9.773712248915963,0.522080438534536,-0.3028574615016692,-0.2962321295764471,-1.3571777361009294,1.860984288833263,0.7767357969575758,7.059403411168083,2.118997296264816
3.84,-0.3214993710269544,-0.2297601697303912,9.762043366922315,0.3409457448131557,0.3710476860046535,-0.013202878479463515,-1.347538437629411,1.88575348081361,0.9720833890142319,7.2719981512459375,2.1114326014169795
3.85,-0.32531256853258367,-0.22781971774125237,9.807519689323811,0.9233536628680168,0.14964629020324596,0.1400805794098034,-1.3299581128874653,1.8992757998634258,1.5011262569837653,7.357739190388209,2.191692890034462
3.86,-0.32909323505245247,-0.2258564839701886,9.817087798788858,0.29196409266298196,0.650870644699399,-0.40480175996082307,-1.3172011959024994,1.9194707201350492,1.6684094195877621,7.730660733233886,1.9597584832508284
3.87,-0.3328409925230596,-0.22387066473894085,9.893808541960794,-0.17964604539352977,0.7807555983634263,0.21203052223204485,-1.2954978157522845,1.9262875446770782,1.565479780711176,8.178000899360997,2.0812430672078563
3.88,-0.33655546617178084,-0.22186245862777754,9.847521191909303,0.29532741534615464,0.016002074532883312,-0.23691967353545806,-1.289889954796061,1.9569207683086944,1.734689985953078,8.18716941598121,1.9454980448983274
3.89,-0.340236284554347,-0.21983206645563613,9.77115481721688,0.5543517902914539,-0.37670893517309173,-0.007226135439139552,-1.2880463355780714,1.99375660671577,2.0523102790148893,7.9713310179023065,1.9413577727893891
3.9,-0.3438830795919869,-0.21777969126004207,9.755079266432583,0.410241090598682,0.2299860714695582,0.2731421240018498,-1.278107799801601,2.0184348160862022,2.2873611938021283,8.10310337743936,2.097856737873241
3.91,-0.347495486608236,-0.2157055382768043,9.824595958575326,0.25363701555364887,-0.33885768487605306,0.0032111349054689082,-1.256979104988349,2.025216842610461,2.432684550959716,7.908952156028146,2.0996965833064083
3.92,-0.3510731443654027,-0.21360981491949307,9.733988339648969,0.533337344794577,1.0066936237633115,-0.2181929452632843,-1.2563224524886556,2.0650794178468765,2.7382644493585273,8.485745321312326,1.9746811897742478
3.93,-0.3546156951006931,-0.2114927307586973,9.891572938292718,0.5846477952228364,0.06826766554136872,-0.05480490196291542,-1.2240741603482148,2.0527218824173468,3.0732430808138136,8.524859826425576,1.9432802827553797
3.94,-0.35812278456198526,-0.20935449750106913,9.858972006036065,0.6910794955187636,-0.18266077565605435,-0.04418147960266766,-1.2156870321331248,2.079860653228221,3.469202606407253,8.420202873727236,1.9179661505651941
3.95,-0.36159406204325606,-0.20719532896815224,9.776541217394765,0.3243549437948213,0.0923401529324542,-0.18500551494106385,-1.2132647866590358,2.1176947098483363,3.655044366294046,8.473109903071109,1.8119657607355921
3.96,-0.36502918041964977,-0.20501544107500086,9.714343273545456,-0.08355904015842718,-0.6735631447648482,-0.12939803133355118,-1.2081615020620915,2.151472928050929,3.6071685457629545,8.08718651077293,1.7378261234987835
3.97,-0.3684277961821916,-0.2028150518085875,9.867693618708271,0.07335684321666142,-0.48580701925532577,0.7993235852523585,-1.1766399775819663,2.1377949688931768,3.6491989359386863,7.808839492634436,2.1958049662578043
3.98,-0.3717895694721373,-0.20059438120600537,9.79427300773737,0.6032544832541784,0.6002069539722127,0.28045972397061936,-1.1724542142018317,2.173442627194322,3.994838418155034,8.15273286856845,2.3564966087845622
3.99,-0.37511416411495946,-0.198353651332464,9.861890815598674,-0.40846783549361804,-0.32844713948569787,-0.14774015901458018,-1.1514106272628166,2.1778544409477334,3.7608035040662813,7.964546452423002,2.2718477027558865
4.0,-0.3784012476539641,-0.1960930862590836,9.720278617060282,0.1843366544364506,-0.5234554913409698,0.3484772022553678,-1.1548313188463672,2.2288917120329925,3.8664206649188815,7.664628441015262,2.471510503605717
4.01,-0.3816504913835367,-0.19381291204048762,9.770031248852312,-0.19666940616368034,0.2683263762636431,-0.16690974487800497,-1.1355896128208753,2.2365901005835553,3.753737355302152,7.818368184906527,2.375878229999905
4.0200000000000005,-0.3848615703820122,-0.19151335669219766,9.80026218498591,0.014372411467408744,0.5928520773314985,0.5865623187933207,-1.118649923069279,2.24845168293423,3.7619721434316946,8.158047525430227,2.711953803051088
4.03,-0.38803416354416614,-0.18919465016783257,9.802349029688237,0.6392259313036494,0.35947665533253337,0.18482109609904696,-1.104860569076036,2.2664959220825525,4.128221754579571,8.364012550916245,2.8178485286298063
4.04,-0.3911679536133264,-0.18685702433611243,9.777496726426039,0.09554953400995167,0.4980238429029082,-0.05365107200211444,-1.0939672574360877,2.290590568705195,4.182967624486845,8.64935929589821,2.7871087177176186
4.05,-0.3942626272130975,-0.1845007129576723,9.831142496617376,0.023218274078074405,-0.3783975442847304,0.2238584629051388,-1.0742783895313905,2.2961233132674623,4.19627072036607,8.43255339571992,2.9153702149068215
4.0600000000000005,-0.3973178748786987,-0.18212595166168635,9.74661897853087,-0.6799280704899596,-0.7109053333709219,-0.7854380760342496,-1.069619901526423,2.3339450793941183,3.8067004929542834,8.025234497722382,2.465347185738389
4.07,-0.40033339108790883,-0.1797329779223055,9.792881025748937,0.37312678301361035,0.7506668259777434,-0.5633837344549026,-1.050578865918134,2.3405566907900406,4.020486468296196,8.455335061000937,2.1425519680125773
4.08,-0.40330887429162027,-0.1773220310349094,9.806014781585596,0.3227420905705377,-0.16133991942106787,-0.5969625031995277,-1.0350909830837045,2.3547903741703293,4.205404131025309,8.362894063449282,1.800517526104382
4.09,-0.40624402694399214,-0.1748933520921777,9.825721941702938,1.08162736165273,-0.12541650822752368,0.07147154738185338,-1.018860693927488,2.3671684520066902,4.825131180903134,8.291035671728258,1.841467720949194
4.1,-0.40913855553220513,-0.17244718395998074,9.835580743904446,-0.15388911747650041,0.664097070924529,0.866257499742546,-1.0035959278337958,2.381639675601013,4.736959179932033,8.671535401291033,2.3377968854866835
4.11,-0.4119921706058129,-0.1699837712530931,9.743767895408107,0.10957516383196948,0.27811500470032996,1.1156500730963161,-0.9985534469725488,2.420806370702963,4.799741146650872,8.830883618154123,2.9770175200678026
4.12,-0.41480458680568544,-0.167503360310733,9.723294291463219,0.12469184185537763,0.22794388604080382,0.3190255507203786,-0.986041080131947,2.442446946592399,4.871184334976644,8.961485891212291,3.159805761557449
4.13,-0.41757552289254674,-0.16500619917192752,9.863883841094927,0.7887266398817372,1.082501172450542,0.25042223747222847,-0.9575152481183647,2.4237609996542266,5.323091573110005,9.58171359797721,3.303287185895062
4.14,-0.42030470177509727,-0.16249253755070958,9.81661570059898,-0.04764776619347605,-0.3217591151900715,-0.9005288670763695,-0.9474514627630255,2.4513228029308123,5.295791404287323,9.397359138856137,2.7873219672727196
4.15,-0.42299185053772326,-0.15996262681114629,9.762575673172172,0.13951076288516961,0.4639200640406186,-0.2713368998670109,-0.9378441804121269,2.480621215701595,5.375725211968485,9.663165850908719,2.631857319798717
4.16,-0.42563670046778723,-0.1574167199422039,9.877557598776127,0.3039482548582696,0.02850656244854225,-0.39389187595411945,-0.9121880677589016,2.467109702622359,5.549874796175569,9.679498913916111,2.4061738183357964
4.17,-0.4282389870825006,-0.15485507153244743,9.805783731714644,0.09330456157817905,0.13429613943162846,-0.310423799125558,-0.9038907963498536,2.5003256161461143,5.603334391168279,9.756444961372578,2.228314019236415
4.18,-0.43079845015537027,-0.15227793774458317,9.858964859203192,-0.22321680727526413,0.7642342132062658,-0.0840719092923948,-0.8840556799143763,2.501713287999347,5.4754405357054585,10.194319067702814,2.180144346232063
4.19,-0.4333148337422221,-0.14968557628984208,9.803375924070506,0.09704499644915379,0.25391787814481187,-0.23604528884856368,-0.873915463933227,2.5305643925805357,5.5310432427809735,10.339803347328909,2.0449003096239675
4.2,-0.4357878862067941,-0.14707824640220982,9.9030373962441,0.536815874929886,0.2691480395248165,-0.9896499051878939,-0.8500621798797792,2.519425014265133,5.8386161928490505,10.49401386975897,1.4778724792473221
4.21,-0.4382173602459007,-0.14445620881250212,9.88776704212216,-0.5132576497055301,0.5362536686549011,0.3739551280587669,-0.836187526601166,2.537368822452356,5.54454111638907,10.801264699244143,1.692133061509617
4.22,-0.44060301291416265,-0.14181972572229296,9.787551792576046,0.066484837073438,-0.18247636477144266,-0.5363715128699033,-0.8293068769241542,2.5772549847257333,5.582634135668992,10.696713406237427,1.384814712238703
4.23,-0.44294460564830135,-0.13916906077769403,9.848578547547719,-0.3500604074695866,-0.4196048336695032,0.11962343205557477,-0.8087683159117415,2.574913390330267,5.382064224726033,10.456297459947816,1.4533539146224008
4.24,-0.44524190429099425,-0.1365044790429914,9.832268797479259,0.5975233144624212,-0.5224045970105168,1.0370413348749867,-0.7945900418163631,2.592546377075114,5.724419987933794,10.156981566853863,2.0475350437697037
4.25,-0.44749467911429175,-0.13382624697413784,9.868431577876619,-0.7615934523918874,-0.9831782946880009,-0.4596922957932117,-0.7761455589769386,2.5961219441861383,5.288058926638242,9.593661697486015,1.7841506653566166
4.26,-0.44970270484258884,-0.13113463239210835,9.751753826970996,-0.27946092363579417,1.028103564970161,-1.2651437613731649,-0.7696085630557397,2.640089329616383,5.127939554753725,10.182721859864188,1.0592764261277707
4.2700000000000005,-0.4518657606751528,-0.1284299044561179,9.834302572999922,0.18860593753226043,-0.5516041828608416,-0.1430021109400554,-0.747416411678317,2.6305476454552217,5.236002835510334,9.866675830460604,0.9773422226477785
4.28,-0.4539836303082027,-0.12571233363670667,9.85292122434248,0.7827620146171702,-0.110626811792886,0.5504798174992855,-0.7302162281270501,2.637882612209723,5.684492593881358,9.803291313629376,1.2927440379225341
4.29,-0.45605610195654017,-0.12298219168869168,9.712063025678844,-0.0328751305364939,-0.13840664994446034,0.9791737271102969,-0.7246894197484417,2.688287673253866,5.665656524839429,9.723990116290498,1.853769458260196
4.3,-0.45808296837472745,-0.12023975162399263,9.740837074366713,-0.2775997633465992,0.15370334890455037,-0.6147747972262084,-0.7064358246637957,2.6922638177726985,5.506603519631889,9.81205567967215,1.501529319991062
4.3100000000000005,-0.460064026877812,-0.1174852876843304,9.698038391111997,0.9405785347202951,0.4078686062696484,0.24834961161826086,-0.6932867380069219,2.715812129814839,6.04551551572816,10.045747260583196,1.6438232167646376
4.32,-0.46199907936159396,-0.11471907531380407,9.786529658277773,-0.724006950208122,0.4302367441798727,-0.23265522839002667,-0.6708513828094755,2.702607191338405,5.630689941550815,10.292254845055007,1.5105215424167446
4.33,-0.46388793232243775,-0.11194139113134528,9.835877112789799,-1.099402978310041,-0.2915387192844692,-0.05297417715206783,-0.6513269649948094,2.700056394564286,5.000778209904251,10.125215403531216,1.48016956382405
4.34,-0.46573039687662127,-0.10915251290305752,9.875117852604802,0.2200072250266662,-0.08356085689320575,1.3221716735085174,-0.6325778525206446,2.7000186002152224,5.12683310954108,10.0773385420874,2.2377184015341434
4.3500000000000005,-0.4675262887792247,-0.10635271951443934,9.80370473902099,-0.2510271121763056,0.14128997524414982,-0.7514851641975766,-0.6208271955844804,2.7301344083640857,4.983005117402768,10.158291763723337,1.807148964825828
4.36,-0.46927542844255393,-0.10354229094249692,9.881430777278565,-0.5106164085653566,-0.12434556309177354,0.12686983074728672,-0.5996744111195952,2.718821096409557,4.690443361183978,10.0870469785854,1.879840049311132
4.37,-0.4709776409541005,-0.10072150822774523,9.730994927089256,0.35417822364967666,0.8036727880099963,0.2338465858827166,-0.5923304432900861,2.770790416770829,4.893372607849849,10.547517731858033,2.0138243214653215
4.38,-0.47263275609403166,-0.09789065344610505,9.714830878032243,0.12190035688559941,0.24548747581912567,0.5428931624696736,-0.5766344659180803,2.7851391780663928,4.963216392530309,10.688171745028407,2.324879302047621
4.39,-0.4742406083522128,-0.09505000968069555,9.79722261505517,-0.2820393153683642,0.36743889302490873,0.04899157673544772,-0.5552007252822468,2.7711442560099906,4.801619710475482,10.898698798298172,2.3529494178708097
4.4,-0.47580103694475806,-0.0921998609935258,9.819203272446966,-0.6401521993354472,0.33144063433370635,0.15402526975205116,-0.5373467797839896,2.7740423615127816,4.434839386648643,11.088600361264742,2.4411994283774052
4.41,-0.4773138858301082,-0.08934049239708992,9.798365262595295,0.43622866414007233,0.5867369287426625,-0.19582428371089555,-0.5217838815728374,2.7887647227319037,4.68478008959701,11.424775978483282,2.3290003384309776
4.42,-0.47877900372463555,-0.08647218982586448,9.696627894998008,0.3251005889793305,0.09051077935185348,0.13456347062255367,-0.5103147493966997,2.8266185095448018,4.87104907285743,11.476634853599162,2.4060995554319344
4.43,-0.4801962441177717,-0.08359524010771638,9.795543998024362,-0.049587931889691454,-0.6484159739779233,-0.17159613774870525,-0.4883642831047943,2.8063996230408024,4.842637270577775,11.105119733980718,2.307782175539712
4.44,-0.48156546528665833,-0.0807099309352197,9.734776524974759,0.9233184980238329,0.1998439758763208,0.3107859449280254,-0.4744418111639346,2.8319344370040116,5.371659990568515,11.219621938710864,2.485849468973784
4.45,-0.4828865303103194,-0.07781655083688784,9.833483627441503,-0.5350423831630763,-0.3256784468959145,-0.18480516802181698,-0.45285082275878985,2.8112406375207213,5.065103176796165,11.033021867134275,2.37996386951434
4.46,-0.4841593070833536,-0.07491538914831918,9.818329912304844,-0.7627625854623694,-0.2643083408748784,0.18855019695109324,-0.4366367223572204,2.822987971120651,4.628072251354817,10.881584288763285,2.487995213259044
4.47,-0.48538366832914415,-0.07200673598326497,9.753006010683633,-0.3459540349406222,0.2931820093775466,-0.014631406842489177,-0.4224859064060885,2.8490450216272354,4.429855119403308,11.049565266492225,2.479612031657385
4.48,-0.48655949161258694,-0.06909088220461759,9.774306654133166,-0.022793008177748902,0.6191415357168178,0.5630251253860841,-0.4044946403274897,2.849728251877552,4.4167956830238015,11.40430736251346,2.8022017814483453
4.49,-0.48768665935233324,-0.06616811939532556,9.747039323905554,0.12166972466134592,0.010635788368030825,-0.02569686179424312,-0.3884625139678695,2.8643018460795155,4.486507325126317,11.41040122254523,2.7874785589084397
4.5,-0.4887650588325485,-0.0632387398292339,9.796866045136342,-0.12061802892816494,0.1544165062994819,-0.8865162341034407,-0.36937954626254865,2.856055539235163,4.417398260507693,11.498875395161571,2.279541990449
4.51,-0.4897945822141834,-0.06030303644185811,9.847757116025063,0.1760276982571484,0.851107472317619,0.6309607503569958,-0.3504149028445578,2.8473012914568065,4.518254738445712,11.98652423028573,2.6410560000520436
4.5200000000000005,-0.4907751265457578,-0.057361302801090225,9.750713697683224,-0.625769712095222,0.12037658974428414,-0.45286615043130946,-0.3366284569643458,2.8813428224067965,4.159714975743058,12.055494960392435,2.3815827162332215
4.53,-0.4917065937736554,-0.054413833077843414,9.825202325775892,0.7218823020366297,1.3008415570901974,-0.3268831693244099,-0.31691503668204946,2.864958503096089,4.573323215753361,12.80082253725972,2.1942923893034463
4.54,-0.49258889075192974,-0.051460922016633534,9.773487119081379,-0.0410755891962844,0.2827548228157721,-0.29783064702174605,-0.30129765149923776,2.8852560560913805,4.549788628318636,12.962829175030599,2.0236479374471603
4.55,-0.49342192925161826,-0.048502864906105954,9.760356358386883,0.5586479157940638,-0.8803813795779089,0.6872190465854087,-0.28435870925156514,2.894013076565142,4.869870420856171,12.458407620550402,2.4173955879406432
4.5600000000000005,-0.4942056259695653,-0.04553995754950641,9.794648482002273,0.17136267318885207,0.37667081055226626,-1.0678371069893478,-0.2660548315461136,2.888475107817461,4.968054035361109,12.674224174822806,1.8055697747942405
4.57,-0.49493990253675196,-0.042572496235102016,9.748237883879032,0.22837660957689196,0.19057919244138888,1.5688742668299969,-0.2498986035376486,2.9065117721664953,5.098904240831066,12.78341804776564,2.7044688369686214
4.58,-0.4956246855261335,-0.03960077770655108,9.772317534732641,0.28488364011610195,0.6448763770413728,0.5280284045330259,-0.23188281788836565,2.90337061324205,5.262130601504707,13.152905127002512,3.0070069355730547
4.59,-0.4962599064599816,-0.036625099133230025,9.740106105370558,0.22385428000865748,0.3365906756349792,0.11161945706457983,-0.21516555380406835,2.9166861085532463,5.390389702069908,13.345757447332979,3.0709601964538624
4.6000000000000005,-0.49684550181673226,-0.033645758080516196,9.89823625664582,0.32136137993377195,-0.06922799199188691,-0.027447000308143194,-0.19451228509844987,2.8735537582391655,5.574516275594001,13.30609271549729,3.055234218051309
4.61,-0.4973814130373378,-0.030663052480032617,9.801763177598588,0.6645762650662157,-0.6121491181446829,0.14277703742882847,-0.1790086318686052,2.90491553438547,5.9552905632738105,12.95535698106335,3.137039463862456
4.62,-0.4978675865311227,-0.0276772805998535,9.765013724600372,0.09826058485073506,-0.10451162864301264,0.26056121418966915,-0.16218410910221545,2.9186767558530646,6.011589751448717,12.895476207339305,3.286330096022141
4.63,-0.49830397368114276,-0.024688741014678713,9.810698995536711,0.35450187879425615,-0.42526022710465006,0.3226077929750285,-0.1439995822145942,2.907653217736998,6.2147044389189166,12.65181995813788,3.4711708118695275
4.64,-0.49869053084904663,-0.021697732575976344,9.79438359751546,-0.04486784714361336,-0.29026172490236135,0.27780223300172424,-0.12676429778272602,2.9147459577541284,6.1889970469552065,12.485512180761273,3.630339823685729
4.65,-0.4990272193794397,-0.018704554382097498,9.788951520023339,0.7200586077247364,0.2942892022103048,0.04479034062762441,-0.10933764088206156,2.918328009701495,6.601560386719956,12.654127533481285,3.656002807671052
4.66,-0.49931400560374944,-0.01570950574836778,9.830708335002171,-0.33819615102963485,0.8349522521757031,-0.09866921015366305,-0.09144090365776276,2.9076221936802185,6.407788196418318,13.132520105983371,3.599469494359829
4.67,-0.4995508608435924,-0.012712886177154438,9.837875385502366,0.9004702164554078,0.19733576491149055,-0.07563664182675585,-0.0739445299476761,2.9068847543395386,6.923719810698176,13.245585211175529,3.5561328753320547
4.68,-0.499737761413642,-0.009714995327917418,9.773474942619474,-0.020078975322171705,-0.5979415310175922,-0.0974541401763405,-0.05687862569674087,2.9270997587449155,6.912215401155535,12.90298982744675,3.5002957460848987
4.69,-0.499874688623997,-0.006716132987243144,9.771209087967767,-0.7153875510590241,0.22230133411007036,0.5668850484335323,-0.03933018452682443,2.928578908713537,6.502328380675859,13.030359155235788,3.825097069665279
4.7,-0.4999616287820504,-0.003716599038867168,9.786247415142418,0.06405220745539464,0.5983157433228256,0.29677836114043094,-0.021731320347475488,2.9245946020363474,6.539027605355088,13.373168946898547,3.9951386059075773
4.71,-0.499998573193859,-0.0007166934336844615,9.684903941763222,-0.3405258287374404,-0.3048914521596911,-1.4701943173321401,-0.004234310932748231,2.9553619747687176,6.343920607573341,13.198478950252035,3.152779010237589
4.72,-0.49998551816501224,0.0022832838402443707,9.724240446890073,0.42032177449436203,-0.06700858333645884,0.3279503882648805,0.01343549078308149,2.9433512165088658,6.584747330844081,13.160085846360744,3.3406808087970585
4.73,-0.4999224650010022,0.0052830327876921745,9.868343713372226,-0.32631198965119546,0.007344097364598547,0.09736809735938742,0.03063409581974119,2.9000791459660435,6.397784265877512,13.164293705698569,3.3964686391238983
4.74,-0.4998094200070927,0.008282253436263456,9.882248385675064,-0.22309171660738986,-0.39244915654112,-0.009354378222948708,0.047957941314690465,2.8953512375126214,6.269962082113574,12.939436821865081,3.3911089732860336
4.75,-0.499646394487689,0.011280645866392965,9.787548198022181,-0.9447703654727655,0.3241402169219295,-0.19425922654444291,0.06595038552075375,2.92236430066289,5.72864834305303,13.125155552272238,3.279806595363583
4.76,-0.4994334047452071,0.014277910241336345,9.82882784815279,-0.22615315962453836,-0.06047407430389078,0.5620563599930067,0.08312378318441523,2.9088724070706693,5.599072081020874,13.090506447607229,3.6018412832724565
4.7700000000000005,-0.4991704720784438,0.01727374683715407,9.815562507727178,-1.2119396633144783,0.20976622195351388,0.4737632310614289,0.10070074287794369,2.911264594611507,4.904681555407537,13.210693682605271,3.873287716614951
4.78,-0.49885762278044665,0.02026785607268256,9.953944040422762,-0.7919514117428617,-0.44374608890105005,-0.38643883391180456,0.11651717103901153,2.869062076909172,4.450926658438171,12.956445811000703,3.651874495214511
4.79,-0.4984948881358848,0.023259938539493607,9.85597874557173,0.3802073280721487,-0.21872915016170522,0.20352614356226756,0.13504417377313815,2.8954259285149706,4.668769488715734,12.831123194582352,3.7684864273776606
4.8,-0.49808230441792034,0.026249695031833917,9.793604120425963,0.3929000793254161,0.3611906789138857,-0.485828367270643,0.1533706930813085,2.911425112357957,4.893884732365866,13.038070283591495,3.4901271777230076
4.8100000000000005,-0.4976199128845813,0.029236826576545985,9.75222297796998,0.21272878089248237,-0.1864165760458835,-0.6898090823944653,0.17154706643785317,2.9210454549011926,5.015769389208461,12.931261415013397,3.09489554549244
4.82,-0.49710775977463567,0.03222103446296407,9.719677683987122,-0.4834880715646065,0.8634819256167026,-0.3133586122949826,0.1896886732270538,2.927795158055302,4.738751030700946,13.426000292150892,2.9153542217091313
4.83,-0.4965458963029677,0.035202020272786634,9.810173181793362,-0.023855678070989927,-0.19981809280730117,0.4311967361913794,0.20533173905335025,2.8975577424447114,4.725082729104748,13.311512917332207,3.1624118412838715
4.84,-0.4959343786554563,0.03817948590991684,9.762182462735785,-0.0018012695452842022,0.11234236287594296,0.47656252268804333,0.22379165470836032,2.90819430061142,4.724050677308621,13.37588037288088,3.4354621511581676
4.8500000000000005,-0.4952732679833566,0.04115313363027245,9.728887314520117,-0.5791823445962714,0.46629541593654494,0.2565427100486465,0.24204591705934878,2.9142427218227294,4.392203519513431,13.643048061805052,3.5824503492222193
4.86,-0.4945626303971849,0.04412266607155893,9.767671355787874,0.7516991508835753,-0.7091828664665158,0.36254789342399857,0.2584844454521169,2.8985296786593993,4.822895561605382,13.23671606500013,3.7901750651426473
4.87,-0.4938025369601077,0.04708778628300703,9.74592259981928,0.4386811452878357,-0.8804044059903879,0.2580891435574792,0.2764698838265745,2.900525598017733,5.074241433247209,12.73228131735269,3.9380493046570533
4.88,-0.4929930636808352,0.050048197755066505,9.88435708175363,-0.11048208691483197,-0.7628281572850474,-0.3207407976114761,0.2897473262371949,2.8552867120803165,5.0109398376926615,12.295212822010964,3.754278298739177
4.89,-0.4921342915060208,0.053003604449057176,9.844081987847474,0.01344291949726539,0.631292051713591,0.21596127233697032,0.30811056558093397,2.861958518471391,5.018642065961975,12.656916653376678,3.8780150374148232
4.9,-0.49122630631216624,0.05595371082677273,9.79960136793417,0.10419140397377624,-0.2759290729462234,0.40020476261384114,0.32673334605034227,2.8696267469166212,5.078339364399982,12.498820883599558,4.107315557792524
4.91,-0.49026919889703446,0.05889822188003327,9.873997206944502,-1.0208674342121453,1.2790996428341261,0.37714566490678714,0.34134377502708635,2.842496963363023,4.49342520102866,13.231691256758513,4.323404183666187
4.92,-0.48926306497056926,0.0618368431601875,9.803868415382382,-0.12358869126029846,-0.2821237993286943,0.5944566857373215,0.3609329965573437,2.856924838970897,4.422614071661542,13.070046168942744,4.664002897412871
4.93,-0.48820800514532486,0.06476928080755624,9.756935789933587,-0.3409921239988993,0.09227565159851848,0.3541519236005319,0.3798646708724542,2.8644580958955674,4.22723990627938,13.122916241731328,4.866917075255183
4.94,-0.48710412492640454,0.06769524158081872,9.876156203863484,-0.5008100049474578,0.7710549762839378,0.17572410377079145,0.3922459358556796,2.823543755108617,3.9402968074646942,13.56469835883302,4.96759960630349
4.95,-0.4859515347009104,0.07061443288633536,9.826945502184234,-0.14055014644297745,1.0030464440795615,0.5350751191582137,0.41120628268037623,2.830950113660858,3.8597674766590195,14.139401843339957,5.274175176426141
4.96,-0.4847503497269044,0.07352656280740852,9.748137692283677,0.8988432634247613,1.030751788318199,-0.013260629624530031,0.43161916731055644,2.8467490258813766,4.374766915184344,14.729979326471176,5.266577392597729
4.97,-0.483500690121883,0.07643134013347289,9.79048306609582,0.3204214306335049,0.6041831152965712,-0.4409373256138589,0.4467373251558545,2.8271555905171097,4.558354937237255,15.076150875845268,5.013938824388664
4.98,-0.48220268085076523,0.07932847438921674,9.756219087330763,-0.2855894948913984,0.5120312629057312,-0.08153348197188194,0.4652976213297385,2.8294570861051604,4.3947241514232696,15.36952328417721,4.967223563625019
4.99,-0.4808564517133967,0.08221767586362823,9.730860013451784,0.2862913906780793,0.29626347460059155,-0.37245132240322454,0.4835002335640045,2.8289042663492707,4.558757094043401,15.539269812057418,4.753824598843512
